#  Created by Sandify
#  https://sandify.org
#  Version: 0.2.4
#
#  Machine type: Polar
#    Max radius (mm): 150
#    Start point: none
#    End point: none
#  Content type: shape
#  Layer:
#    Shape: Circle
#    Name: point
#    Number of lobes: 1
#    Direction: clockwise
#    Visible: true
#    Initial width: 7
#    Initial height: 7
#    X offset: 2
#    Y offset: 2
#    Rotate (degrees): 0
#    Reverse path: true
#    Number of loops: 20
#    When transforming shape: smear
#    Scale: true
#      Scale (+/-): 100
#      Scale by: constant
#    Spin: false
#    Track: false
#    Fine tuning:
#      Connect to next layer: line
#      Draw portion of path (%): 100
#      Backtrack at end (%): 0
#      Rotate starting point (%): 0
#  Reverse export path: false
#
# File name: 'circle'
#

1.60580 0.89316
1.61923 0.89268
1.63267 0.89237
1.64612 0.89222
1.65427 0.89220
1.66771 0.89172
1.68117 0.89141
1.69463 0.89125
1.70276 0.89123
1.71622 0.89074
1.72969 0.89042
1.74316 0.89025
1.75130 0.89023
1.76477 0.88973
1.77825 0.88940
1.79175 0.88923
1.79987 0.88920
1.81335 0.88870
1.82685 0.88836
1.84036 0.88818
1.84847 0.88816
1.86197 0.88765
1.87549 0.88731
1.88901 0.88713
1.89711 0.88709
1.91063 0.88658
1.92416 0.88623
1.93770 0.88604
1.94580 0.88601
1.95933 0.88549
1.97288 0.88514
1.98644 0.88494
1.99453 0.88491
2.00808 0.88439
2.02164 0.88403
2.03522 0.88383
2.04330 0.88379
2.05687 0.88327
2.07045 0.88291
2.08404 0.88271
2.09211 0.88267
2.10569 0.88214
2.11929 0.88177
2.13290 0.88157
2.14096 0.88153
2.15457 0.88100
2.16818 0.88063
2.18181 0.88043
2.18986 0.88038
2.20349 0.87985
2.21712 0.87948
2.23076 0.87928
2.23881 0.87923
2.25245 0.87870
2.26610 0.87833
2.27976 0.87812
2.28780 0.87807
2.30146 0.87754
2.31513 0.87717
2.32881 0.87696
2.33684 0.87691
2.35052 0.87638
2.36420 0.87601
2.37790 0.87580
2.38593 0.87575
2.39962 0.87522
2.41333 0.87485
2.42704 0.87464
2.43506 0.87459
2.44877 0.87406
2.46250 0.87369
2.47623 0.87348
2.48424 0.87344
2.49797 0.87290
2.51171 0.87253
2.52546 0.87233
2.53346 0.87229
2.54721 0.87175
2.56097 0.87139
2.57474 0.87118
2.58273 0.87114
2.59650 0.87061
2.61028 0.87025
2.62407 0.87004
2.63205 0.87000
2.64584 0.86948
2.65963 0.86912
2.67344 0.86892
2.68141 0.86888
2.69522 0.86836
2.70903 0.86800
2.72286 0.86781
2.73083 0.86777
2.74465 0.86725
2.75848 0.86690
2.77232 0.86671
2.78028 0.86668
2.79412 0.86616
2.80797 0.86581
2.82183 0.86563
2.82978 0.86560
2.84363 0.86509
2.85750 0.86474
2.87138 0.86456
2.87932 0.86454
2.89319 0.86403
2.90708 0.86370
2.92097 0.86352
2.92890 0.86350
2.94279 0.86300
2.95669 0.86267
2.97060 0.86250
2.97852 0.86248
2.99243 0.86199
3.00635 0.86166
3.02027 0.86150
3.02819 0.86149
3.04211 0.86100
3.05604 0.86069
3.06999 0.86054
3.07789 0.86053
3.09183 0.86005
3.10578 0.85974
3.11974 0.85959
3.12763 0.85958
3.14159 0.85911
3.15555 0.85881
3.16952 0.85867
3.17740 0.85867
3.19137 0.85821
3.20535 0.85792
3.21934 0.85779
3.22721 0.85779
3.24120 0.85734
3.25519 0.85706
3.26919 0.85694
3.27706 0.85695
3.29106 0.85650
3.30507 0.85623
3.31908 0.85612
3.32693 0.85613
3.34094 0.85570
3.35496 0.85543
3.36899 0.85533
3.37683 0.85535
3.39085 0.85492
3.40489 0.85467
3.41893 0.85458
3.42676 0.85461
3.44079 0.85419
3.45484 0.85394
3.46889 0.85386
3.47670 0.85389
3.49075 0.85349
3.50481 0.85325
3.51888 0.85318
3.52668 0.85322
3.54074 0.85283
3.55481 0.85260
3.56888 0.85255
3.57667 0.85259
3.59074 0.85221
3.60482 0.85199
3.61891 0.85195
3.62669 0.85200
3.64077 0.85162
3.65486 0.85142
3.66895 0.85138
3.67671 0.85144
3.69080 0.85108
3.70490 0.85089
3.71900 0.85086
3.72675 0.85092
3.74085 0.85057
3.75496 0.85040
3.76907 0.85039
3.77680 0.85045
3.79091 0.85011
3.80502 0.84995
3.81914 0.84995
3.82686 0.85002
3.84097 0.84969
3.85510 0.84954
3.86922 0.84955
3.87692 0.84963
3.89105 0.84931
3.90518 0.84917
3.91931 0.84920
3.92699 0.84928
3.94112 0.84898
3.95525 0.84885
3.96939 0.84888
3.97706 0.84897
3.99119 0.84868
4.00533 0.84856
4.01947 0.84861
4.02713 0.84871
4.04126 0.84843
4.05541 0.84832
4.06955 0.84838
4.07719 0.84848
4.09133 0.84821
4.10548 0.84812
4.11963 0.84819
4.12724 0.84830
4.14139 0.84805
4.15554 0.84796
4.16969 0.84804
4.17729 0.84816
4.19144 0.84791
4.20559 0.84784
4.21974 0.84793
4.22733 0.84806
4.24147 0.84782
4.25563 0.84776
4.26978 0.84787
4.27734 0.84799
4.29149 0.84777
4.30565 0.84772
4.31980 0.84784
4.32735 0.84797
4.34150 0.84776
4.35566 0.84772
4.36981 0.84785
4.37733 0.84799
4.39148 0.84779
4.40564 0.84776
4.41979 0.84790
4.42730 0.84804
4.44145 0.84785
4.45560 0.84783
4.46975 0.84798
4.47724 0.84813
4.49139 0.84795
4.50554 0.84794
4.51969 0.84810
4.52716 0.84825
4.54130 0.84808
4.55545 0.84808
4.56960 0.84826
4.57704 0.84841
4.59119 0.84825
4.60533 0.84826
4.61948 0.84844
4.62690 0.84861
4.64104 0.84846
4.65519 0.84848
4.66933 0.84867
4.67673 0.84883
4.69087 0.84869
4.70500 0.84872
4.71914 0.84891
4.72652 0.84908
4.74066 0.84895
4.75479 0.84899
4.76892 0.84920
4.77628 0.84937
4.79041 0.84924
4.80454 0.84929
4.81867 0.84950
4.82601 0.84968
4.84013 0.84956
4.85425 0.84961
4.86837 0.84984
4.87569 0.85002
4.88981 0.84991
4.90393 0.84996
4.91804 0.85019
4.92533 0.85038
4.93945 0.85027
4.95356 0.85034
4.96767 0.85057
4.97494 0.85076
4.98904 0.85066
5.00315 0.85073
5.01725 0.85097
5.02450 0.85116
5.03860 0.85107
5.05270 0.85115
5.06679 0.85139
5.07402 0.85159
5.08811 0.85150
5.10220 0.85158
5.11629 0.85183
5.12349 0.85203
5.13758 0.85195
5.15166 0.85203
5.16574 0.85229
5.17292 0.85248
5.18700 0.85240
5.20107 0.85249
5.21515 0.85275
5.22231 0.85295
5.23638 0.85287
5.25045 0.85296
5.26451 0.85323
5.27164 0.85342
5.28570 0.85335
5.29976 0.85345
5.31382 0.85371
5.32093 0.85391
5.33499 0.85384
5.34904 0.85394
5.36309 0.85421
5.37017 0.85441
5.38422 0.85434
5.39826 0.85444
5.41230 0.85471
5.41937 0.85491
5.43341 0.85484
5.44744 0.85495
5.46147 0.85522
5.46852 0.85542
5.48254 0.85535
5.49657 0.85545
5.51059 0.85572
5.51762 0.85592
5.53164 0.85585
5.54566 0.85595
5.55967 0.85622
5.56667 0.85642
5.58068 0.85636
5.59470 0.85646
5.60870 0.85673
5.61567 0.85692
5.62968 0.85686
5.64368 0.85696
5.65768 0.85723
5.66463 0.85742
5.67863 0.85735
5.69262 0.85745
5.70661 0.85771
5.71354 0.85791
5.72752 0.85784
5.74151 0.85793
5.75549 0.85820
5.76240 0.85839
5.77639 0.85832
5.79036 0.85841
5.80434 0.85867
5.81122 0.85886
5.82520 0.85878
5.83917 0.85887
5.85314 0.85913
5.86000 0.85932
5.87396 0.85924
5.88793 0.85932
5.90188 0.85958
5.90872 0.85976
5.92268 0.85968
5.93664 0.85976
5.95059 0.86001
5.95741 0.86019
5.97136 0.86010
5.98531 0.86017
5.99926 0.86042
6.00605 0.86060
6.02000 0.86050
6.03394 0.86057
6.04788 0.86081
6.05465 0.86099
6.06859 0.86089
6.08253 0.86095
6.09646 0.86118
6.10322 0.86136
6.11715 0.86125
6.13108 0.86131
6.14501 0.86153
6.15174 0.86170
6.16567 0.86159
6.17960 0.86164
6.19352 0.86186
6.20023 0.86202
6.21415 0.86190
6.22807 0.86194
6.24199 0.86216
6.24868 0.86232
6.26260 0.86219
6.27651 0.86222
6.29043 0.86243
6.29710 0.86258
6.31101 0.86245
6.32492 0.86247
6.33883 0.86267
6.34548 0.86282
6.35939 0.86268
6.37330 0.86270
6.38721 0.86288
6.39383 0.86303
6.40774 0.86287
6.42165 0.86288
6.43555 0.86306
6.44216 0.86320
6.45606 0.86304
6.46997 0.86304
6.48387 0.86321
6.49045 0.86335
6.50435 0.86318
6.51825 0.86317
6.53215 0.86333
6.53873 0.86346
6.55262 0.86328
6.56652 0.86326
6.58042 0.86341
6.58698 0.86353
6.60087 0.86334
6.61477 0.86331
6.62867 0.86345
6.63520 0.86357
6.64909 0.86337
6.66299 0.86333
6.67689 0.86346
6.68340 0.86358
6.69730 0.86336
6.71120 0.86332
6.72510 0.86343
6.73159 0.86355
6.74548 0.86332
6.75938 0.86326
6.77328 0.86337
6.77977 0.86347
6.79366 0.86324
6.80756 0.86317
6.82147 0.86326
6.82792 0.86336
6.84182 0.86311
6.85573 0.86303
6.86963 0.86312
6.87607 0.86321
6.88997 0.86295
6.90387 0.86286
6.91778 0.86294
6.92421 0.86303
6.93811 0.86276
6.95202 0.86265
6.96593 0.86271
6.97234 0.86280
6.98625 0.86251
7.00016 0.86240
7.01408 0.86245
7.02046 0.86253
7.03437 0.86224
7.04829 0.86211
7.06221 0.86215
7.06858 0.86222
7.08250 0.86192
7.09642 0.86178
7.11035 0.86180
7.11671 0.86187
7.13063 0.86155
7.14456 0.86140
7.15849 0.86142
7.16482 0.86148
7.17875 0.86115
7.19269 0.86099
7.20662 0.86100
7.21296 0.86105
7.22689 0.86071
7.24083 0.86054
7.25478 0.86053
7.26109 0.86058
7.27503 0.86023
7.28898 0.86005
7.30293 0.86003
7.30922 0.86008
7.32317 0.85972
7.33713 0.85952
7.35109 0.85949
7.35738 0.85953
7.37133 0.85916
7.38530 0.85895
7.39927 0.85891
7.40554 0.85895
7.41951 0.85856
7.43348 0.85834
7.44746 0.85829
7.45372 0.85833
7.46769 0.85793
7.48168 0.85770
7.49567 0.85764
7.50191 0.85767
7.51589 0.85726
7.52989 0.85702
7.54389 0.85695
7.55012 0.85697
7.56412 0.85656
7.57813 0.85631
7.59214 0.85623
7.59835 0.85624
7.61236 0.85581
7.62638 0.85555
7.64041 0.85546
7.64661 0.85547
7.66063 0.85503
7.67467 0.85477
7.68871 0.85467
7.69489 0.85467
7.70893 0.85423
7.72297 0.85395
7.73703 0.85384
7.74320 0.85384
7.75725 0.85339
7.77131 0.85310
7.78537 0.85298
7.79153 0.85298
7.80560 0.85251
7.81967 0.85222
7.83375 0.85209
7.83990 0.85208
7.85397 0.85161
7.86806 0.85131
7.88216 0.85117
7.88830 0.85116
7.90239 0.85068
7.91649 0.85037
7.93060 0.85022
7.93673 0.85021
7.95083 0.84972
7.96495 0.84940
7.97908 0.84925
7.98519 0.84923
7.99931 0.84873
8.01345 0.84841
8.02759 0.84825
8.03370 0.84823
8.04783 0.84773
8.06199 0.84739
8.07615 0.84723
8.08224 0.84721
8.09639 0.84670
8.11056 0.84636
8.12474 0.84619
8.13082 0.84617
8.14499 0.84565
8.15918 0.84530
8.17338 0.84512
8.17944 0.84510
8.19363 0.84458
8.20784 0.84422
8.22205 0.84404
8.22810 0.84401
8.24231 0.84349
8.25653 0.84313
8.27077 0.84294
8.27681 0.84292
8.29103 0.84239
8.30528 0.84202
8.31953 0.84183
8.32556 0.84180
8.33981 0.84127
8.35407 0.84090
8.36834 0.84071
8.37436 0.84067
8.38862 0.84013
8.40290 0.83977
8.41719 0.83957
8.42320 0.83954
8.43749 0.83899
8.45179 0.83862
8.46609 0.83842
8.47209 0.83839
8.48639 0.83785
8.50071 0.83747
8.51504 0.83727
8.52103 0.83724
8.53535 0.83669
8.54969 0.83632
8.56404 0.83611
8.57002 0.83608
8.58436 0.83553
8.59872 0.83516
8.61309 0.83495
8.61905 0.83492
8.63341 0.83437
8.64779 0.83400
8.66218 0.83379
8.66813 0.83376
8.68252 0.83321
8.69692 0.83284
8.71132 0.83264
8.71727 0.83261
8.73167 0.83206
8.74609 0.83168
8.76052 0.83148
8.76645 0.83144
8.78087 0.83090
8.79531 0.83052
8.80976 0.83032
8.81568 0.83029
8.83012 0.82975
8.84458 0.82938
8.85905 0.82918
8.86496 0.82915
8.87942 0.82861
8.89390 0.82824
8.90839 0.82804
8.91429 0.82801
8.92878 0.82747
8.94327 0.82711
8.95778 0.82692
8.96366 0.82689
8.97817 0.82635
8.99269 0.82599
9.00721 0.82581
9.01310 0.82578
9.02762 0.82525
9.04216 0.82489
9.05670 0.82471
9.06256 0.82468
9.07710 0.82416
9.09166 0.82380
9.10623 0.82363
9.11208 0.82360
9.12664 0.82308
9.14122 0.82274
9.15580 0.82256
9.16165 0.82254
9.17623 0.82203
9.19082 0.82169
9.20543 0.82152
9.21125 0.82150
9.22585 0.82100
9.24046 0.82066
9.25509 0.82050
9.26090 0.82049
9.27552 0.81999
9.29015 0.81966
9.30479 0.81951
9.31059 0.81949
9.32523 0.81900
9.33988 0.81868
9.35453 0.81854
9.36033 0.81853
9.37498 0.81804
9.38965 0.81773
9.40433 0.81759
9.41010 0.81759
9.42477 0.81711
9.43945 0.81681
9.45415 0.81668
9.45991 0.81668
9.47460 0.81621
9.48930 0.81591
9.50401 0.81579
9.50975 0.81579
9.52446 0.81533
9.53917 0.81505
9.55390 0.81494
9.55963 0.81494
9.57435 0.81449
9.58908 0.81422
9.60382 0.81412
9.60955 0.81413
9.62428 0.81369
9.63903 0.81343
9.65378 0.81334
9.65949 0.81335
9.67424 0.81292
9.68900 0.81267
9.70377 0.81259
9.70946 0.81260
9.72422 0.81218
9.73900 0.81194
9.75378 0.81187
9.75945 0.81189
9.77423 0.81148
9.78901 0.81125
9.80381 0.81120
9.80947 0.81122
9.82426 0.81082
9.83906 0.81060
9.85387 0.81056
9.85951 0.81059
9.87431 0.81020
9.88912 0.80999
9.90394 0.80996
9.90957 0.80999
9.92438 0.80962
9.93921 0.80942
9.95403 0.80940
9.95964 0.80944
9.97446 0.80907
9.98930 0.80889
10.00413 0.80888
10.00973 0.80892
10.02457 0.80857
10.03941 0.80840
10.05425 0.80840
10.05984 0.80845
10.07468 0.80811
10.08953 0.80795
10.10438 0.80797
10.10994 0.80802
10.12479 0.80769
10.13965 0.80754
10.15451 0.80757
10.16006 0.80763
10.17491 0.80731
10.18978 0.80718
10.20464 0.80722
10.21018 0.80728
10.22504 0.80698
10.23991 0.80685
10.25478 0.80691
10.26030 0.80698
10.27516 0.80668
10.29004 0.80657
10.30492 0.80664
10.31042 0.80671
10.32529 0.80643
10.34017 0.80633
10.35505 0.80641
10.36053 0.80648
10.37541 0.80622
10.39029 0.80613
10.40518 0.80622
10.41063 0.80630
10.42551 0.80605
10.44040 0.80597
10.45529 0.80607
10.46073 0.80616
10.47561 0.80592
10.49051 0.80585
10.50539 0.80597
10.51082 0.80606
10.52570 0.80583
10.54060 0.80578
10.55549 0.80590
10.56088 0.80599
10.57577 0.80578
10.59066 0.80574
10.60555 0.80588
10.61093 0.80597
10.62582 0.80577
10.64071 0.80574
10.65560 0.80589
10.66097 0.80599
10.67586 0.80579
10.69075 0.80578
10.70564 0.80594
10.71098 0.80604
10.72586 0.80586
10.74075 0.80585
10.75564 0.80603
10.76096 0.80613
10.77585 0.80596
10.79074 0.80597
10.80562 0.80615
10.81092 0.80626
10.82580 0.80610
10.84069 0.80611
10.85557 0.80631
10.86085 0.80642
10.87573 0.80627
10.89061 0.80629
10.90549 0.80650
10.91075 0.80661
10.92563 0.80647
10.94050 0.80650
10.95538 0.80672
10.96062 0.80683
10.97549 0.80670
10.99036 0.80674
11.00523 0.80697
11.01044 0.80709
11.02531 0.80696
11.04018 0.80702
11.05505 0.80725
11.06024 0.80737
11.07510 0.80726
11.08996 0.80732
11.10482 0.80756
11.10999 0.80769
11.12485 0.80758
11.13971 0.80765
11.15456 0.80789
11.15971 0.80802
11.17456 0.80792
11.18941 0.80800
11.20426 0.80825
11.20938 0.80838
11.22422 0.80829
11.23907 0.80837
11.25391 0.80863
11.25901 0.80877
11.27385 0.80868
11.28868 0.80877
11.30351 0.80904
11.30860 0.80917
11.32343 0.80909
11.33826 0.80918
11.35308 0.80946
11.35813 0.80959
11.37296 0.80951
11.38778 0.80962
11.40259 0.80990
11.40763 0.81003
11.42245 0.80996
11.43726 0.81007
11.45207 0.81035
11.45708 0.81049
11.47188 0.81042
11.48669 0.81053
11.50149 0.81082
11.50648 0.81096
11.52127 0.81089
11.53607 0.81101
11.55086 0.81130
11.55583 0.81143
11.57061 0.81137
11.58540 0.81149
11.60018 0.81179
11.60513 0.81192
11.61991 0.81186
11.63469 0.81198
11.64946 0.81228
11.65437 0.81242
11.66914 0.81236
11.68391 0.81248
11.69867 0.81278
11.70358 0.81292
11.71834 0.81286
11.73310 0.81299
11.74785 0.81328
11.75273 0.81342
11.76748 0.81337
11.78223 0.81349
11.79697 0.81379
11.80182 0.81392
11.81657 0.81387
11.83131 0.81399
11.84605 0.81429
11.85088 0.81443
11.86561 0.81437
11.88034 0.81450
11.89507 0.81480
11.89987 0.81493
11.91460 0.81488
11.92932 0.81500
11.94404 0.81529
11.94882 0.81543
11.96354 0.81537
11.97825 0.81549
11.99296 0.81578
11.99772 0.81592
12.01243 0.81586
12.02714 0.81598
12.04183 0.81627
12.04657 0.81640
12.06127 0.81634
12.07597 0.81645
12.09066 0.81674
12.09537 0.81687
12.11007 0.81680
12.12476 0.81691
12.13944 0.81719
12.14414 0.81732
12.15882 0.81725
12.17350 0.81736
12.18818 0.81764
12.19285 0.81777
12.20752 0.81769
12.22219 0.81779
12.23686 0.81807
12.24151 0.81819
12.25617 0.81811
12.27084 0.81821
12.28550 0.81848
12.29013 0.81861
12.30479 0.81852
12.31945 0.81861
12.33410 0.81888
12.33871 0.81899
12.35336 0.81890
12.36801 0.81898
12.38266 0.81924
12.38724 0.81936
12.40189 0.81926
12.41654 0.81934
12.43118 0.81959
12.43574 0.81971
12.45038 0.81960
12.46502 0.81967
12.47965 0.81992
12.48419 0.82003
12.49882 0.81991
12.51346 0.81997
12.52809 0.82021
12.53261 0.82032
12.54724 0.82020
12.56187 0.82025
12.57649 0.82048
12.58099 0.82059
12.59562 0.82046
12.61024 0.82050
12.62487 0.82072
12.62934 0.82082
12.64396 0.82069
12.65858 0.82072
12.67320 0.82093
12.67766 0.82103
12.69227 0.82088
12.70689 0.82091
12.72151 0.82111
12.72594 0.82121
12.74056 0.82105
12.75517 0.82107
12.76978 0.82126
12.77420 0.82135
12.78881 0.82118
12.80343 0.82119
12.81803 0.82137
12.82243 0.82146
12.83704 0.82128
12.85165 0.82128
12.86626 0.82145
12.87063 0.82154
12.88524 0.82135
12.89985 0.82134
12.91446 0.82150
12.91881 0.82158
12.93342 0.82138
12.94803 0.82135
12.96264 0.82150
12.96697 0.82158
12.98158 0.82137
12.99619 0.82133
13.01080 0.82147
13.01512 0.82155
13.02972 0.82133
13.04433 0.82128
13.05894 0.82140
13.06324 0.82148
13.07785 0.82124
13.09246 0.82118
13.10707 0.82130
13.11135 0.82136
13.12596 0.82112
13.14058 0.82105
13.15519 0.82115
13.15945 0.82121
13.17406 0.82095
13.18868 0.82087
13.20329 0.82096
13.20754 0.82102
13.22216 0.82075
13.23678 0.82066
13.25140 0.82074
13.25562 0.82080
13.27024 0.82051
13.28487 0.82041
13.29949 0.82048
13.30370 0.82053
13.31832 0.82023
13.33295 0.82012
13.34758 0.82017
13.35177 0.82022
13.36640 0.81991
13.38103 0.81978
13.39567 0.81983
13.39984 0.81987
13.41447 0.81955
13.42912 0.81941
13.44376 0.81944
13.44791 0.81948
13.46255 0.81915
13.47720 0.81900
13.49186 0.81902
13.49599 0.81906
13.51064 0.81872
13.52529 0.81855
13.53996 0.81855
13.54408 0.81859
13.55873 0.81823
13.57340 0.81805
13.58807 0.81805
13.59217 0.81808
13.60683 0.81772
13.62151 0.81753
13.63618 0.81751
13.64027 0.81754
13.65494 0.81716
13.66962 0.81696
13.68431 0.81693
13.68839 0.81695
13.70307 0.81656
13.71777 0.81635
13.73247 0.81631
13.73651 0.81633
13.75121 0.81593
13.76592 0.81570
13.78063 0.81565
13.78466 0.81567
13.79937 0.81526
13.81409 0.81502
13.82881 0.81496
13.83283 0.81497
13.84755 0.81455
13.86228 0.81430
13.87701 0.81423
13.88101 0.81424
13.89574 0.81381
13.91049 0.81355
13.92524 0.81347
13.92922 0.81348
13.94397 0.81303
13.95873 0.81276
13.97349 0.81267
13.97747 0.81268
13.99223 0.81222
14.00700 0.81194
14.02178 0.81184
14.02573 0.81184
14.04050 0.81138
14.05529 0.81109
14.07009 0.81098
14.07402 0.81098
14.08881 0.81051
14.10362 0.81021
14.11843 0.81009
14.12235 0.81009
14.13716 0.80960
14.15198 0.80930
14.16681 0.80917
14.17071 0.80917
14.18553 0.80867
14.20037 0.80836
14.21522 0.80822
14.21911 0.80822
14.23395 0.80772
14.24881 0.80739
14.26367 0.80725
14.26754 0.80724
14.28240 0.80673
14.29727 0.80640
14.31215 0.80625
14.31601 0.80624
14.33089 0.80572
14.34578 0.80539
14.36068 0.80523
14.36453 0.80522
14.37942 0.80469
14.39433 0.80435
14.40925 0.80418
14.41308 0.80417
14.42799 0.80364
14.44292 0.80329
14.45786 0.80312
14.46167 0.80311
14.47660 0.80257
14.49155 0.80222
14.50651 0.80204
14.51031 0.80202
14.52526 0.80148
14.54023 0.80112
14.55521 0.80094
14.55900 0.80092
14.57397 0.80038
14.58896 0.80001
14.60396 0.79983
14.60774 0.79981
14.62273 0.79926
14.63774 0.79889
14.65276 0.79870
14.65651 0.79868
14.67153 0.79813
14.68656 0.79776
14.70160 0.79757
14.70534 0.79755
14.72038 0.79699
14.73543 0.79662
14.75049 0.79643
14.75422 0.79641
14.76928 0.79585
14.78436 0.79547
14.79944 0.79527
14.80315 0.79525
14.81823 0.79469
14.83333 0.79431
14.84843 0.79411
14.85213 0.79409
14.86723 0.79353
14.88235 0.79315
14.89748 0.79295
14.90116 0.79293
14.91628 0.79237
14.93142 0.79199
14.94658 0.79179
14.95024 0.79177
14.96539 0.79121
14.98055 0.79083
14.99573 0.79063
14.99937 0.79061
15.01454 0.79005
15.02973 0.78967
15.04492 0.78947
15.04856 0.78945
15.06375 0.78889
15.07896 0.78852
15.09418 0.78832
15.09780 0.78830
15.11301 0.78774
15.12824 0.78737
15.14348 0.78718
15.14709 0.78716
15.16232 0.78660
15.17758 0.78623
15.19284 0.78604
15.19642 0.78602
15.21168 0.78547
15.22695 0.78510
15.24224 0.78492
15.24582 0.78490
15.26110 0.78435
15.27639 0.78399
15.29170 0.78380
15.29526 0.78379
15.31056 0.78324
15.32587 0.78288
15.34120 0.78271
15.34475 0.78269
15.36007 0.78215
15.37541 0.78180
15.39076 0.78162
15.39429 0.78161
15.40963 0.78108
15.42499 0.78073
15.44036 0.78056
15.44387 0.78055
15.45924 0.78003
15.47462 0.77968
15.49001 0.77952
15.49351 0.77951
15.50890 0.77899
15.52430 0.77866
15.53971 0.77850
15.54319 0.77850
15.55860 0.77798
15.57402 0.77765
15.58945 0.77751
15.59292 0.77750
15.60834 0.77700
15.62379 0.77668
15.63924 0.77654
15.64268 0.77654
15.65813 0.77604
15.67359 0.77572
15.68906 0.77560
15.69249 0.77559
15.70795 0.77510
15.72343 0.77480
15.73892 0.77468
15.74234 0.77468
15.75782 0.77420
15.77332 0.77391
15.78882 0.77380
15.79222 0.77380
15.80773 0.77333
15.82324 0.77304
15.83876 0.77295
15.84214 0.77295
15.85766 0.77249
15.87320 0.77222
15.88874 0.77213
15.89210 0.77214
15.90764 0.77169
15.92319 0.77142
15.93874 0.77134
15.94209 0.77135
15.95764 0.77091
15.97321 0.77066
15.98878 0.77059
15.99211 0.77060
16.00768 0.77018
16.02326 0.76994
16.03884 0.76988
16.04215 0.76990
16.05773 0.76948
16.07333 0.76925
16.08893 0.76921
16.09222 0.76922
16.10782 0.76882
16.12342 0.76860
16.13904 0.76857
16.14231 0.76859
16.15792 0.76820
16.17354 0.76799
16.18916 0.76798
16.19242 0.76800
16.20804 0.76762
16.22368 0.76742
16.23931 0.76742
16.24255 0.76744
16.25819 0.76707
16.27383 0.76689
16.28948 0.76690
16.29269 0.76693
16.30834 0.76657
16.32399 0.76640
16.33965 0.76642
16.34285 0.76645
16.35850 0.76611
16.37417 0.76596
16.38983 0.76599
16.39301 0.76602
16.40867 0.76569
16.42435 0.76555
16.44002 0.76560
16.44319 0.76563
16.45886 0.76531
16.47454 0.76518
16.49022 0.76524
16.49336 0.76528
16.50904 0.76498
16.52473 0.76486
16.54042 0.76494
16.54354 0.76497
16.55922 0.76468
16.57491 0.76458
16.59061 0.76467
16.59371 0.76471
16.60940 0.76443
16.62510 0.76434
16.64080 0.76444
16.64388 0.76448
16.65957 0.76422
16.67528 0.76414
16.69098 0.76426
16.69404 0.76430
16.70974 0.76405
16.72545 0.76399
16.74115 0.76411
16.74419 0.76416
16.75990 0.76392
16.77560 0.76387
16.79131 0.76401
16.79433 0.76406
16.81004 0.76383
16.82575 0.76380
16.84146 0.76395
16.84446 0.76400
16.86016 0.76379
16.87588 0.76376
16.89158 0.76392
16.89456 0.76398
16.91027 0.76377
16.92598 0.76376
16.94169 0.76393
16.94465 0.76399
16.96035 0.76380
16.97606 0.76380
16.99177 0.76399
16.99471 0.76405
17.01041 0.76387
17.02612 0.76388
17.04183 0.76407
17.04474 0.76413
17.06045 0.76397
17.07615 0.76399
17.09186 0.76420
17.09475 0.76426
17.11045 0.76410
17.12615 0.76414
17.14185 0.76436
17.14472 0.76442
17.16042 0.76428
17.17612 0.76432
17.19181 0.76455
17.19466 0.76461
17.21036 0.76448
17.22606 0.76453
17.24175 0.76478
17.24457 0.76484
17.26026 0.76472
17.27595 0.76478
17.29164 0.76503
17.29444 0.76509
17.31013 0.76498
17.32582 0.76505
17.34149 0.76531
17.34428 0.76538
17.35996 0.76527
17.37564 0.76535
17.39131 0.76563
17.39406 0.76569
17.40974 0.76559
17.42541 0.76568
17.44107 0.76596
17.44382 0.76603
17.45949 0.76594
17.47515 0.76603
17.49081 0.76632
17.49353 0.76639
17.50918 0.76631
17.52484 0.76641
17.54049 0.76670
17.54318 0.76677
17.55883 0.76670
17.57448 0.76681
17.59012 0.76711
17.59280 0.76718
17.60844 0.76711
17.62408 0.76723
17.63971 0.76753
17.64236 0.76760
17.65799 0.76754
17.67362 0.76766
17.68925 0.76797
17.69187 0.76804
17.70750 0.76798
17.72312 0.76811
17.73874 0.76843
17.74134 0.76850
17.75695 0.76844
17.77257 0.76858
17.78817 0.76890
17.79075 0.76897
17.80636 0.76891
17.82196 0.76905
17.83756 0.76937
17.84012 0.76944
17.85571 0.76940
17.87131 0.76954
17.88689 0.76986
17.88943 0.76993
17.90501 0.76989
17.92060 0.77003
17.93617 0.77036
17.93869 0.77043
17.95427 0.77038
17.96984 0.77053
17.98541 0.77086
17.98789 0.77093
18.00346 0.77088
18.01902 0.77103
18.03458 0.77136
18.03705 0.77143
18.05260 0.77139
18.06816 0.77154
18.08370 0.77187
18.08614 0.77194
18.10169 0.77190
18.11723 0.77204
18.13277 0.77237
18.13519 0.77244
18.15072 0.77240
18.16626 0.77254
18.18178 0.77287
18.18419 0.77294
18.19971 0.77290
18.21524 0.77304
18.23075 0.77337
18.23313 0.77344
18.24864 0.77339
18.26416 0.77354
18.27966 0.77386
18.28201 0.77393
18.29752 0.77388
18.31302 0.77402
18.32852 0.77434
18.33085 0.77441
18.34635 0.77436
18.36184 0.77449
18.37733 0.77482
18.37964 0.77488
18.39513 0.77483
18.41061 0.77496
18.42609 0.77528
18.42838 0.77534
18.44386 0.77528
18.45933 0.77541
18.47480 0.77572
18.47707 0.77578
18.49254 0.77572
18.50801 0.77584
18.52347 0.77615
18.52571 0.77621
18.54117 0.77614
18.55663 0.77625
18.57208 0.77655
18.57431 0.77661
18.58976 0.77654
18.60521 0.77665
18.62065 0.77695
18.62286 0.77700
18.63830 0.77692
18.65374 0.77702
18.66918 0.77731
18.67136 0.77737
18.68680 0.77728
18.70224 0.77738
18.71767 0.77766
18.71982 0.77772
18.73525 0.77762
18.75068 0.77771
18.76611 0.77798
18.76825 0.77803
18.78367 0.77793
18.79909 0.77801
18.81451 0.77828
18.81663 0.77833
18.83204 0.77821
18.84746 0.77829
18.86288 0.77854
18.86497 0.77859
18.88038 0.77847
18.89580 0.77853
18.91120 0.77878
18.91328 0.77883
18.92869 0.77870
18.94410 0.77875
18.95950 0.77899
18.96155 0.77904
18.97696 0.77890
18.99236 0.77894
19.00776 0.77917
19.00979 0.77921
19.02519 0.77906
19.04060 0.77910
19.05600 0.77931
19.05800 0.77936
19.07340 0.77919
19.08880 0.77922
19.10420 0.77942
19.10618 0.77946
19.12158 0.77929
19.13698 0.77930
19.15237 0.77950
19.15435 0.77954
19.16974 0.77936
19.18514 0.77936
19.20053 0.77954
19.20248 0.77958
19.21787 0.77938
19.23327 0.77937
19.24866 0.77954
19.25058 0.77958
19.26598 0.77937
19.28137 0.77935
19.29677 0.77952
19.29868 0.77955
19.31407 0.77933
19.32947 0.77929
19.34487 0.77944
19.34675 0.77947
19.36214 0.77924
19.37754 0.77920
19.39294 0.77933
19.39481 0.77936
19.41020 0.77912
19.42560 0.77906
19.44101 0.77919
19.44285 0.77922
19.45825 0.77896
19.47366 0.77889
19.48906 0.77900
19.49089 0.77903
19.50629 0.77876
19.52170 0.77867
19.53711 0.77877
19.53892 0.77880
19.55432 0.77852
19.56974 0.77842
19.58515 0.77851
19.58694 0.77853
19.60235 0.77824
19.61777 0.77812
19.63319 0.77820
19.63495 0.77822
19.65037 0.77791
19.66580 0.77779
19.68123 0.77785
19.68297 0.77787
19.69840 0.77755
19.71383 0.77742
19.72927 0.77747
19.73099 0.77748
19.74642 0.77715
19.76186 0.77700
19.77731 0.77704
19.77901 0.77706
19.79445 0.77671
19.80990 0.77655
19.82535 0.77657
19.82704 0.77659
19.84249 0.77623
19.85795 0.77606
19.87342 0.77607
19.87508 0.77608
19.89054 0.77571
19.90601 0.77552
19.92148 0.77552
19.92312 0.77554
19.93859 0.77515
19.95407 0.77496
19.96956 0.77494
19.97119 0.77495
19.98667 0.77456
20.00217 0.77435
20.01766 0.77432
20.01926 0.77433
20.03476 0.77392
20.05026 0.77370
20.06577 0.77367
20.06736 0.77367
20.08287 0.77325
20.09839 0.77302
20.11391 0.77297
20.11548 0.77297
20.13100 0.77254
20.14653 0.77230
20.16207 0.77224
20.16362 0.77225
20.17915 0.77180
20.19470 0.77154
20.21025 0.77147
20.21178 0.77148
20.22733 0.77103
20.24289 0.77076
20.25846 0.77068
20.25997 0.77068
20.27554 0.77022
20.29112 0.76994
20.30670 0.76985
20.30819 0.76985
20.32377 0.76938
20.33937 0.76909
20.35497 0.76899
20.35645 0.76899
20.37204 0.76850
20.38766 0.76820
20.40328 0.76809
20.40473 0.76809
20.42034 0.76760
20.43597 0.76729
20.45161 0.76718
20.45305 0.76717
20.46868 0.76667
20.48433 0.76635
20.49999 0.76622
20.50140 0.76622
20.51705 0.76571
20.53272 0.76538
20.54840 0.76525
20.54980 0.76525
20.56547 0.76473
20.58116 0.76439
20.59686 0.76425
20.59824 0.76424
20.61393 0.76372
20.62964 0.76338
20.64536 0.76323
20.64672 0.76322
20.66243 0.76269
20.67816 0.76234
20.69390 0.76218
20.69524 0.76218
20.71098 0.76163
20.72673 0.76128
20.74249 0.76112
20.74381 0.76111
20.75956 0.76057
20.77534 0.76021
20.79112 0.76004
20.79242 0.76003
20.80820 0.75948
20.82400 0.75912
20.83980 0.75894
20.84109 0.75894
20.85689 0.75838
20.87271 0.75801
20.88854 0.75783
20.88979 0.75782
20.90562 0.75726
20.92146 0.75688
20.93731 0.75670
20.93856 0.75670
20.95440 0.75613
20.97027 0.75575
20.98615 0.75556
20.98737 0.75556
21.00324 0.75499
21.01913 0.75461
21.03503 0.75442
21.03624 0.75441
21.05213 0.75384
21.06805 0.75346
21.08397 0.75326
21.08516 0.75326
21.10107 0.75268
21.11701 0.75230
21.13297 0.75211
21.13413 0.75210
21.15007 0.75153
21.16603 0.75114
21.18201 0.75095
21.18315 0.75094
21.19912 0.75037
21.21511 0.74998
21.23111 0.74979
21.23223 0.74978
21.24822 0.74920
21.26424 0.74882
21.28026 0.74863
21.28136 0.74862
21.29738 0.74804
21.31342 0.74766
21.32947 0.74747
21.33056 0.74747
21.34660 0.74689
21.36266 0.74651
21.37874 0.74632
21.37980 0.74631
21.39587 0.74574
21.41195 0.74536
21.42805 0.74518
21.42909 0.74517
21.44518 0.74460
21.46130 0.74422
21.47742 0.74404
21.47845 0.74403
21.49456 0.74347
21.51070 0.74309
21.52685 0.74291
21.52785 0.74291
21.54400 0.74235
21.56016 0.74198
21.57633 0.74180
21.57731 0.74180
21.59348 0.74124
21.60966 0.74087
21.62586 0.74070
21.62682 0.74070
21.64301 0.74015
21.65922 0.73979
21.67544 0.73962
21.67639 0.73962
21.69260 0.73907
21.70884 0.73872
21.72508 0.73857
21.72600 0.73856
21.74224 0.73802
21.75849 0.73767
21.77476 0.73752
21.77566 0.73752
21.79192 0.73698
21.80820 0.73664
21.82449 0.73650
21.82538 0.73650
21.84166 0.73597
21.85797 0.73564
21.87428 0.73551
21.87514 0.73551
21.89145 0.73499
21.90777 0.73467
21.92411 0.73454
21.92494 0.73454
21.94127 0.73403
21.95762 0.73372
21.97397 0.73360
21.97479 0.73360
21.99114 0.73310
22.00751 0.73280
22.02388 0.73269
22.02468 0.73269
22.04105 0.73220
22.05744 0.73190
22.07383 0.73181
22.07461 0.73181
22.09100 0.73132
22.10741 0.73104
22.12383 0.73095
22.12458 0.73096
22.14099 0.73049
22.15741 0.73021
22.17385 0.73014
22.17458 0.73014
22.19101 0.72968
22.20746 0.72942
22.22391 0.72935
22.22462 0.72935
22.24107 0.72891
22.25753 0.72866
22.27400 0.72861
22.27470 0.72861
22.29116 0.72817
22.30764 0.72793
22.32412 0.72789
22.32480 0.72790
22.34128 0.72747
22.35777 0.72725
22.37427 0.72722
22.37492 0.72723
22.39141 0.72682
22.40792 0.72660
22.42444 0.72659
22.42506 0.72659
22.44157 0.72619
22.45810 0.72599
22.47463 0.72599
22.47524 0.72599
22.49176 0.72561
22.50830 0.72542
22.52484 0.72544
22.52542 0.72544
22.54196 0.72507
22.55851 0.72489
22.57507 0.72492
22.57563 0.72492
22.59218 0.72457
22.60874 0.72441
22.62531 0.72445
22.62584 0.72445
22.64241 0.72411
22.65898 0.72396
22.67555 0.72402
22.67608 0.72402
22.69265 0.72369
22.70923 0.72356
22.72581 0.72362
22.72631 0.72363
22.74289 0.72331
22.75948 0.72319
22.77607 0.72327
22.77655 0.72328
22.79314 0.72297
22.80974 0.72287
22.82633 0.72297
22.82678 0.72297
22.84338 0.72268
22.85999 0.72259
22.87659 0.72270
22.87702 0.72271
22.89363 0.72243
22.91024 0.72236
22.92685 0.72248
22.92725 0.72248
22.94386 0.72222
22.96048 0.72216
22.97709 0.72230
22.97748 0.72230
22.99409 0.72205
23.01071 0.72201
23.02733 0.72216
23.02769 0.72216
23.04431 0.72193
23.06093 0.72189
23.07755 0.72205
23.07789 0.72206
23.09451 0.72184
23.11114 0.72182
23.12776 0.72199
23.12808 0.72200
23.14470 0.72179
23.16132 0.72178
23.17795 0.72197
23.17824 0.72197
23.19486 0.72178
23.21149 0.72178
23.22811 0.72199
23.22838 0.72199
23.24501 0.72181
23.26163 0.72183
23.27825 0.72204
23.27850 0.72205
23.29512 0.72187
23.31174 0.72190
23.32836 0.72213
23.32859 0.72214
23.34520 0.72198
23.36182 0.72202
23.37844 0.72226
23.37865 0.72226
23.39527 0.72212
23.41188 0.72217
23.42849 0.72242
23.42867 0.72242
23.44528 0.72229
23.46190 0.72235
23.47850 0.72261
23.47867 0.72262
23.49527 0.72249
23.51188 0.72257
23.52848 0.72284
23.52863 0.72284
23.54523 0.72273
23.56183 0.72281
23.57843 0.72310
23.57854 0.72310
23.59514 0.72299
23.61173 0.72309
23.62832 0.72338
23.62841 0.72339
23.64500 0.72329
23.66159 0.72339
23.67817 0.72369
23.67824 0.72369
23.69483 0.72361
23.71141 0.72372
23.72798 0.72403
23.72803 0.72404
23.74461 0.72396
23.76118 0.72408
23.77774 0.72440
23.77777 0.72440
23.79434 0.72433
23.81091 0.72446
23.82746 0.72478
23.82747 0.72478
23.84403 0.72472
23.86058 0.72485
23.87711 0.72519
23.89366 0.72513
23.91021 0.72527
23.92670 0.72561
23.94324 0.72556
23.95977 0.72571
23.97624 0.72605
23.99277 0.72600
24.00929 0.72616
24.02573 0.72651
24.04224 0.72646
24.05876 0.72662
24.07516 0.72697
24.09166 0.72694
24.10817 0.72710
24.12453 0.72745
24.14103 0.72742
24.15752 0.72758
24.17386 0.72794
24.19035 0.72791
24.20683 0.72808
24.22313 0.72844
24.23960 0.72841
24.25607 0.72858
24.27234 0.72894
24.28880 0.72891
24.30526 0.72908
24.32149 0.72944
24.33794 0.72942
24.35439 0.72959
24.37059 0.72995
24.38703 0.72992
24.40347 0.73009
24.41964 0.73045
24.43607 0.73043
24.45249 0.73060
24.46862 0.73095
24.48504 0.73092
24.50146 0.73109
24.51756 0.73145
24.53396 0.73142
24.55037 0.73158
24.56643 0.73194
24.58283 0.73191
24.59922 0.73207
24.61526 0.73242
24.63165 0.73238
24.64803 0.73254
24.66403 0.73289
24.68040 0.73285
24.69677 0.73300
24.71274 0.73335
24.72911 0.73330
24.74547 0.73345
24.76142 0.73379
24.77777 0.73374
24.79412 0.73388
24.81003 0.73421
24.82637 0.73416
24.84272 0.73430
24.85859 0.73462
24.87493 0.73456
24.89126 0.73469
24.90711 0.73501
24.92344 0.73494
24.93977 0.73507
24.95558 0.73537
24.97190 0.73530
24.98822 0.73542
25.00401 0.73572
25.02032 0.73563
25.03663 0.73574
25.05239 0.73604
25.06870 0.73594
25.08500 0.73605
25.10073 0.73633
25.11703 0.73623
25.13332 0.73632
25.14903 0.73660
25.16532 0.73649
25.18162 0.73657
25.19729 0.73683
25.21358 0.73671
25.22987 0.73679
25.24552 0.73704
25.26181 0.73691
25.27809 0.73697
25.29372 0.73722
25.31000 0.73707
25.32628 0.73712
25.34187 0.73736
25.35815 0.73720
25.37443 0.73724
25.39001 0.73747
25.40628 0.73730
25.42255 0.73733
25.43811 0.73754
25.45438 0.73737
25.47066 0.73738
25.48619 0.73758
25.50246 0.73739
25.51873 0.73739
25.53425 0.73758
25.55052 0.73738
25.56679 0.73737
25.58228 0.73755
25.59855 0.73733
25.61483 0.73731
25.63029 0.73748
25.64656 0.73725
25.66284 0.73722
25.67830 0.73737
25.69457 0.73712
25.71085 0.73708
25.72629 0.73721
25.74256 0.73696
25.75885 0.73690
25.77426 0.73702
25.79054 0.73676
25.80683 0.73668
25.82222 0.73680
25.83851 0.73651
25.85480 0.73643
25.87018 0.73653
25.88647 0.73623
25.90277 0.73613
25.91814 0.73622
25.93444 0.73591
25.95074 0.73580
25.96610 0.73587
25.98240 0.73555
25.99872 0.73543
26.01405 0.73549
26.03036 0.73515
26.04669 0.73501
26.06201 0.73506
26.07834 0.73471
26.09467 0.73456
26.10999 0.73459
26.12632 0.73423
26.14266 0.73406
26.15796 0.73408
26.17431 0.73371
26.19066 0.73353
26.20595 0.73354
26.22230 0.73315
26.23867 0.73296
26.25396 0.73295
26.27032 0.73255
26.28670 0.73235
26.30197 0.73233
26.31835 0.73192
26.33475 0.73170
26.35001 0.73167
26.36640 0.73125
26.38281 0.73102
26.39807 0.73098
26.41448 0.73054
26.43091 0.73030
26.44615 0.73025
26.46258 0.72980
26.47902 0.72954
26.49427 0.72948
26.51071 0.72902
26.52717 0.72875
26.54240 0.72868
26.55886 0.72821
26.57534 0.72793
26.59057 0.72786
26.60705 0.72737
26.62354 0.72708
26.63877 0.72699
26.65527 0.72649
26.67178 0.72620
26.68701 0.72610
26.70353 0.72559
26.72006 0.72529
26.73528 0.72518
26.75182 0.72466
26.76838 0.72434
26.78360 0.72423
26.80015 0.72370
26.81673 0.72338
26.83195 0.72326
26.84853 0.72272
26.86514 0.72239
26.88035 0.72225
26.89695 0.72171
26.91358 0.72137
26.92879 0.72123
26.94542 0.72068
26.96207 0.72033
26.97728 0.72019
26.99393 0.71963
27.01060 0.71927
27.02582 0.71912
27.04249 0.71856
27.05919 0.71819
27.07440 0.71804
27.09110 0.71747
27.10782 0.71710
27.12304 0.71694
27.13976 0.71637
27.15651 0.71599
27.17172 0.71583
27.18847 0.71525
27.20525 0.71487
27.22046 0.71471
27.23724 0.71412
27.25404 0.71374
27.26926 0.71357
27.28606 0.71298
27.30289 0.71260
27.31811 0.71242
27.33494 0.71183
27.35179 0.71145
27.36702 0.71127
27.38387 0.71068
27.40075 0.71029
27.41598 0.71011
27.43287 0.70952
27.44978 0.70913
27.46500 0.70895
27.48191 0.70836
27.49885 0.70797
27.51407 0.70779
27.53101 0.70720
27.54798 0.70681
27.56321 0.70663
27.58018 0.70604
27.59717 0.70565
27.61240 0.70547
27.62940 0.70488
27.64642 0.70449
27.66165 0.70432
27.67867 0.70373
27.69572 0.70335
27.71096 0.70318
27.72801 0.70259
27.74509 0.70221
27.76033 0.70204
27.77741 0.70146
27.79451 0.70108
27.80975 0.70092
27.82686 0.70034
27.84399 0.69997
27.85923 0.69981
27.87636 0.69923
27.89352 0.69886
27.90876 0.69871
27.92593 0.69814
27.94311 0.69778
27.95835 0.69763
27.97554 0.69707
27.99276 0.69671
28.00800 0.69657
28.02521 0.69601
28.04245 0.69566
28.05770 0.69553
28.07494 0.69498
28.09220 0.69464
28.10745 0.69451
28.12471 0.69397
28.14200 0.69363
28.15724 0.69351
28.17454 0.69298
28.19185 0.69266
28.20709 0.69254
28.22441 0.69202
28.24174 0.69171
28.25698 0.69160
28.27432 0.69109
28.29169 0.69079
28.30692 0.69069
28.32429 0.69019
28.34167 0.68990
28.35690 0.68981
28.37429 0.68932
28.39170 0.68904
28.40692 0.68896
28.42433 0.68848
28.44176 0.68821
28.45698 0.68814
28.47441 0.68768
28.49186 0.68742
28.50708 0.68736
28.52453 0.68690
28.54200 0.68665
28.55721 0.68661
28.57468 0.68617
28.59217 0.68593
28.60736 0.68590
28.62485 0.68547
28.64236 0.68525
28.65755 0.68523
28.67506 0.68481
28.69258 0.68460
28.70777 0.68459
28.72529 0.68419
28.74283 0.68399
28.75800 0.68400
28.77554 0.68361
28.79310 0.68343
28.80826 0.68344
28.82581 0.68307
28.84338 0.68290
28.85854 0.68293
28.87610 0.68256
28.89369 0.68241
28.90882 0.68245
28.92640 0.68210
28.94399 0.68197
28.95912 0.68202
28.97671 0.68169
28.99431 0.68157
29.00942 0.68163
29.02702 0.68131
29.04464 0.68121
29.05973 0.68128
29.07734 0.68098
29.09497 0.68089
29.11004 0.68097
29.12766 0.68068
29.14529 0.68061
29.16035 0.68071
29.17798 0.68043
29.19562 0.68037
29.21065 0.68049
29.22829 0.68022
29.24593 0.68017
29.26095 0.68030
29.27859 0.68006
29.29623 0.68002
29.31123 0.68016
29.32888 0.67993
29.34653 0.67991
29.36150 0.68006
29.37915 0.67984
29.39680 0.67984
29.41175 0.68000
29.42940 0.67980
29.44705 0.67980
29.46198 0.67997
29.47963 0.67979
29.49728 0.67981
29.51219 0.68000
29.52984 0.67982
29.54749 0.67986
29.56237 0.68005
29.58002 0.67989
29.59767 0.67994
29.61252 0.68014
29.63016 0.67999
29.64781 0.68005
29.66264 0.68027
29.68028 0.68013
29.69792 0.68020
29.71273 0.68043
29.73037 0.68030
29.74800 0.68039
29.76277 0.68063
29.78040 0.68051
29.79804 0.68060
29.81278 0.68085
29.83041 0.68074
29.84803 0.68085
29.86275 0.68111
29.88037 0.68101
29.89799 0.68113
29.91268 0.68139
29.93029 0.68131
29.94790 0.68144
29.96255 0.68170
29.98015 0.68163
29.99775 0.68177
30.01238 0.68204
30.02997 0.68198
30.04756 0.68212
30.06216 0.68240
30.07974 0.68235
30.09733 0.68250
30.11189 0.68279
30.12947 0.68274
30.14704 0.68290
30.16157 0.68320
30.17913 0.68316
30.19669 0.68332
30.21119 0.68362
30.22874 0.68358
30.24629 0.68376
30.26075 0.68406
30.27830 0.68403
30.29584 0.68421
30.31026 0.68452
30.32779 0.68449
30.34532 0.68468
30.35972 0.68499
30.37724 0.68497
30.39475 0.68516
30.40911 0.68547
30.42662 0.68545
30.44412 0.68564
30.45845 0.68595
30.47594 0.68594
30.49343 0.68613
30.50773 0.68645
30.52521 0.68644
30.54269 0.68663
30.55694 0.68695
30.57441 0.68694
30.59188 0.68714
30.60610 0.68745
30.62356 0.68744
30.64101 0.68764
30.65520 0.68796
30.67264 0.68795
30.69008 0.68815
30.70424 0.68846
30.72167 0.68845
30.73909 0.68865
30.75322 0.68897
30.77064 0.68895
30.78805 0.68915
30.80214 0.68946
30.81955 0.68944
30.83695 0.68964
30.85100 0.68995
30.86839 0.68993
30.88578 0.69012
30.89982 0.69043
30.91720 0.69041
30.93457 0.69060
30.94856 0.69090
30.96593 0.69087
30.98330 0.69106
30.99725 0.69136
31.01461 0.69133
31.03197 0.69150
31.04589 0.69180
31.06324 0.69176
31.08058 0.69193
31.09448 0.69222
31.11182 0.69218
31.12915 0.69235
31.14301 0.69263
31.16034 0.69258
31.17766 0.69274
31.19150 0.69302
31.20881 0.69296
31.22613 0.69311
31.23993 0.69338
31.25724 0.69332
31.27454 0.69346
31.28831 0.69373
31.30561 0.69365
31.32291 0.69379
31.33666 0.69405
31.35395 0.69397
31.37124 0.69409
31.38495 0.69434
31.40223 0.69425
31.41952 0.69436
31.43320 0.69460
31.45048 0.69450
31.46776 0.69461
31.48142 0.69484
31.49869 0.69473
31.51596 0.69482
31.52959 0.69504
31.54686 0.69492
31.56413 0.69501
31.57773 0.69522
31.59500 0.69509
31.61226 0.69516
31.62584 0.69536
31.64309 0.69522
31.66035 0.69528
31.67391 0.69547
31.69117 0.69531
31.70843 0.69536
31.72196 0.69554
31.73921 0.69537
31.75647 0.69541
31.76997 0.69558
31.78722 0.69540
31.80448 0.69542
31.81796 0.69558
31.83522 0.69539
31.85247 0.69540
31.86593 0.69555
31.88319 0.69534
31.90044 0.69534
31.91389 0.69548
31.93114 0.69525
31.94840 0.69524
31.96182 0.69537
31.97907 0.69513
31.99634 0.69510
32.00974 0.69522
32.02700 0.69496
32.04427 0.69492
32.05764 0.69503
32.07491 0.69476
32.09218 0.69470
32.10555 0.69480
32.12282 0.69452
32.14010 0.69444
32.15344 0.69453
32.17072 0.69423
32.18800 0.69415
32.20132 0.69422
32.21861 0.69391
32.23590 0.69381
32.24921 0.69387
32.26651 0.69355
32.28381 0.69343
32.29710 0.69349
32.31440 0.69315
32.33171 0.69302
32.34499 0.69306
32.36230 0.69270
32.37963 0.69256
32.39290 0.69259
32.41022 0.69222
32.42756 0.69207
32.44080 0.69209
32.45814 0.69170
32.47549 0.69153
32.48873 0.69154
32.50607 0.69114
32.52344 0.69096
32.53666 0.69096
32.55402 0.69055
32.57140 0.69035
32.58462 0.69034
32.60199 0.68991
32.61939 0.68970
32.63259 0.68967
32.64998 0.68924
32.66739 0.68901
32.68059 0.68898
32.69800 0.68853
32.71543 0.68829
32.72861 0.68825
32.74604 0.68779
32.76349 0.68754
32.77666 0.68748
32.79410 0.68701
32.81157 0.68675
32.82474 0.68669
32.84220 0.68621
32.85969 0.68593
32.87285 0.68586
32.89034 0.68536
32.90784 0.68508
32.92100 0.68500
32.93851 0.68449
32.95604 0.68419
32.96918 0.68411
32.98671 0.68359
33.00427 0.68328
33.01740 0.68318
33.03496 0.68265
33.05254 0.68234
33.06567 0.68224
33.08324 0.68170
33.10085 0.68137
33.11398 0.68126
33.13158 0.68071
33.14921 0.68037
33.16232 0.68026
33.17995 0.67970
33.19761 0.67936
33.21073 0.67924
33.22838 0.67867
33.24606 0.67832
33.25918 0.67820
33.27686 0.67762
33.29457 0.67726
33.30768 0.67714
33.32539 0.67655
33.34312 0.67619
33.35623 0.67605
33.37397 0.67546
33.39173 0.67509
33.40484 0.67495
33.42260 0.67436
33.44039 0.67398
33.45350 0.67384
33.47129 0.67325
33.48911 0.67286
33.50221 0.67272
33.52003 0.67212
33.53788 0.67173
33.55098 0.67158
33.56884 0.67097
33.58672 0.67058
33.59982 0.67043
33.61770 0.66983
33.63562 0.66943
33.64871 0.66928
33.66662 0.66867
33.68457 0.66828
33.69766 0.66813
33.71561 0.66752
33.73358 0.66712
33.74667 0.66696
33.76465 0.66635
33.78266 0.66596
33.79575 0.66581
33.81376 0.66519
33.83180 0.66480
33.84488 0.66465
33.86292 0.66403
33.88099 0.66364
33.89408 0.66349
33.91216 0.66288
33.93025 0.66248
33.94334 0.66233
33.96144 0.66173
33.97957 0.66134
33.99266 0.66119
34.01080 0.66059
34.02896 0.66020
34.04204 0.66005
34.06021 0.65945
34.07840 0.65907
34.09149 0.65893
34.10968 0.65833
34.12791 0.65795
34.14099 0.65782
34.15921 0.65723
34.17747 0.65685
34.19055 0.65672
34.20881 0.65614
34.22709 0.65577
34.24017 0.65564
34.25846 0.65506
34.27677 0.65470
34.28984 0.65458
34.30816 0.65400
34.32651 0.65365
34.33958 0.65354
34.35793 0.65297
34.37630 0.65263
34.38937 0.65252
34.40775 0.65196
34.42615 0.65163
34.43921 0.65152
34.45762 0.65098
34.47605 0.65065
34.48911 0.65055
34.50754 0.65002
34.52600 0.64970
34.53905 0.64961
34.55751 0.64909
34.57599 0.64878
34.58904 0.64870
34.60753 0.64818
34.62604 0.64789
34.63908 0.64781
34.65759 0.64731
34.67613 0.64703
34.68916 0.64696
34.70770 0.64647
34.72626 0.64620
34.73928 0.64615
34.75784 0.64567
34.77643 0.64541
34.78943 0.64536
34.80802 0.64490
34.82663 0.64465
34.83964 0.64462
34.85824 0.64416
34.87687 0.64393
34.88986 0.64390
34.90849 0.64346
34.92714 0.64325
34.94012 0.64323
34.95877 0.64281
34.97744 0.64260
34.99041 0.64260
35.00908 0.64219
35.02777 0.64200
35.04072 0.64200
35.05941 0.64160
35.07811 0.64143
35.09105 0.64145
35.10976 0.64106
35.12848 0.64091
35.14140 0.64093
35.16012 0.64056
35.17886 0.64042
35.19176 0.64045
35.21050 0.64010
35.22924 0.63998
35.24214 0.64002
35.26089 0.63968
35.27965 0.63957
35.29253 0.63963
35.31128 0.63931
35.33006 0.63921
35.34292 0.63928
35.36169 0.63898
35.38047 0.63890
35.39331 0.63897
35.41209 0.63868
35.43088 0.63862
35.44370 0.63870
35.46248 0.63843
35.48128 0.63839
35.49408 0.63848
35.51287 0.63823
35.53168 0.63819
35.54445 0.63830
35.56325 0.63806
35.58206 0.63804
35.59482 0.63816
35.61363 0.63793
35.63244 0.63793
35.64517 0.63806
35.66397 0.63785
35.68279 0.63786
35.69549 0.63800
35.71430 0.63780
35.73312 0.63783
35.74579 0.63798
35.76460 0.63780
35.78342 0.63784
35.79607 0.63800
35.81488 0.63783
35.83370 0.63789
35.84633 0.63805
35.86514 0.63790
35.88395 0.63797
35.89655 0.63815
35.91536 0.63801
35.93416 0.63809
35.94674 0.63827
35.96554 0.63815
35.98434 0.63824
35.99689 0.63843
36.01569 0.63832
36.03449 0.63843
36.04700 0.63863
36.06579 0.63852
36.08458 0.63865
36.09706 0.63886
36.11585 0.63876
36.13463 0.63890
36.14709 0.63911
36.16587 0.63903
36.18464 0.63918
36.19707 0.63940
36.21584 0.63933
36.23460 0.63949
36.24700 0.63971
36.26576 0.63965
36.28451 0.63982
36.29687 0.64005
36.31562 0.64000
36.33437 0.64018
36.34670 0.64042
36.36544 0.64037
36.38418 0.64056
36.39647 0.64080
36.41520 0.64077
36.43392 0.64096
36.44619 0.64121
36.46490 0.64118
36.48361 0.64138
36.49584 0.64163
36.51455 0.64161
36.53324 0.64182
36.54544 0.64207
36.56413 0.64206
36.58281 0.64227
36.59497 0.64253
36.61365 0.64252
36.63232 0.64274
36.64445 0.64300
36.66311 0.64300
36.68177 0.64322
36.69386 0.64348
36.71251 0.64348
36.73115 0.64370
36.74321 0.64397
36.76185 0.64397
36.78048 0.64420
36.79250 0.64446
36.81112 0.64447
36.82974 0.64470
36.84173 0.64497
36.86033 0.64497
36.87893 0.64520
36.89089 0.64547
36.90948 0.64547
36.92807 0.64570
36.93999 0.64597
36.95857 0.64598
36.97713 0.64621
36.98902 0.64648
37.00758 0.64648
37.02614 0.64671
37.03800 0.64698
37.05655 0.64698
37.07509 0.64721
37.08691 0.64747
37.10544 0.64747
37.12397 0.64770
37.13575 0.64796
37.15427 0.64796
37.17278 0.64819
37.18454 0.64845
37.20305 0.64844
37.22155 0.64866
37.23327 0.64891
37.25176 0.64890
37.27025 0.64912
37.28193 0.64937
37.30041 0.64935
37.31889 0.64956
37.33054 0.64981
37.34901 0.64979
37.36747 0.64999
37.37909 0.65023
37.39755 0.65021
37.41600 0.65040
37.42759 0.65064
37.44604 0.65061
37.46448 0.65080
37.47603 0.65103
37.49446 0.65099
37.51289 0.65117
37.52442 0.65139
37.54284 0.65134
37.56126 0.65152
37.57276 0.65174
37.59118 0.65168
37.60959 0.65184
37.62106 0.65206
37.63946 0.65199
37.65786 0.65214
37.66930 0.65235
37.68769 0.65227
37.70609 0.65241
37.71750 0.65261
37.73589 0.65252
37.75428 0.65265
37.76565 0.65285
37.78404 0.65275
37.80242 0.65287
37.81378 0.65305
37.83215 0.65294
37.85053 0.65305
37.86185 0.65322
37.88022 0.65310
37.89859 0.65320
37.90989 0.65336
37.92826 0.65323
37.94663 0.65331
37.95790 0.65348
37.97627 0.65333
37.99463 0.65339
38.00588 0.65355
38.02424 0.65338
38.04261 0.65344
38.05383 0.65358
38.07219 0.65341
38.09055 0.65345
38.10175 0.65359
38.12011 0.65340
38.13847 0.65342
38.14965 0.65355
38.16801 0.65335
38.18637 0.65336
38.19753 0.65348
38.21589 0.65326
38.23426 0.65326
38.24538 0.65337
38.26375 0.65313
38.28212 0.65312
38.29323 0.65322
38.31160 0.65297
38.32998 0.65294
38.34106 0.65302
38.35944 0.65276
38.37782 0.65272
38.38889 0.65280
38.40727 0.65252
38.42566 0.65246
38.43670 0.65253
38.45509 0.65223
38.47348 0.65216
38.48451 0.65222
38.50291 0.65191
38.52132 0.65182
38.53232 0.65188
38.55073 0.65155
38.56914 0.65144
38.58013 0.65149
38.59855 0.65114
38.61698 0.65102
38.62795 0.65106
38.64638 0.65070
38.66482 0.65057
38.67577 0.65059
38.69422 0.65022
38.71267 0.65007
38.72360 0.65008
38.74206 0.64970
38.76053 0.64953
38.77145 0.64954
38.78992 0.64914
38.80841 0.64896
38.81931 0.64896
38.83780 0.64854
38.85630 0.64835
38.86720 0.64834
38.88570 0.64791
38.90422 0.64770
38.91510 0.64768
38.93362 0.64724
38.95216 0.64701
38.96302 0.64699
38.98156 0.64653
39.00012 0.64629
39.01097 0.64626
39.02954 0.64578
39.04812 0.64553
39.05895 0.64549
39.07754 0.64501
39.09614 0.64475
39.10696 0.64470
39.12557 0.64420
39.14419 0.64392
39.15501 0.64386
39.17364 0.64335
39.19229 0.64307
39.20309 0.64300
39.22175 0.64248
39.24042 0.64218
39.25122 0.64211
39.26990 0.64158
39.28860 0.64127
39.29938 0.64119
39.31808 0.64065
39.33681 0.64033
39.34759 0.64025
39.36632 0.63969
39.38508 0.63936
39.39585 0.63927
39.41461 0.63870
39.43339 0.63837
39.44415 0.63827
39.46294 0.63770
39.48175 0.63735
39.49250 0.63725
39.51131 0.63667
39.53016 0.63631
39.54091 0.63621
39.55976 0.63562
39.57863 0.63525
39.58936 0.63515
39.60824 0.63455
39.62715 0.63417
39.63787 0.63406
39.65679 0.63346
39.67573 0.63308
39.68645 0.63297
39.70539 0.63235
39.72437 0.63197
39.73508 0.63185
39.75406 0.63124
39.77306 0.63085
39.78377 0.63073
39.80278 0.63011
39.82182 0.62972
39.83251 0.62959
39.85156 0.62897
39.87063 0.62857
39.88133 0.62845
39.90041 0.62782
39.91952 0.62742
39.93021 0.62730
39.94932 0.62667
39.96847 0.62626
39.97915 0.62614
39.99829 0.62551
40.01747 0.62510
40.02815 0.62498
40.04733 0.62434
40.06655 0.62394
40.07722 0.62382
40.09644 0.62319
40.11569 0.62278
40.12635 0.62266
40.14561 0.62203
40.16489 0.62162
40.17556 0.62150
40.19485 0.62087
40.21417 0.62047
40.22482 0.62035
40.24415 0.61972
40.26351 0.61932
40.27416 0.61920
40.29352 0.61858
40.31291 0.61819
40.32355 0.61807
40.34295 0.61745
40.36238 0.61706
40.37301 0.61695
40.39245 0.61633
40.41191 0.61594
40.42255 0.61583
40.44202 0.61522
40.46152 0.61484
40.47213 0.61473
40.49164 0.61413
40.51118 0.61375
40.52179 0.61365
40.54133 0.61305
40.56090 0.61269
40.57151 0.61259
40.59108 0.61200
40.61069 0.61164
40.62128 0.61155
40.64089 0.61097
40.66053 0.61062
40.67111 0.61053
40.69076 0.60996
40.71043 0.60962
40.72101 0.60953
40.74068 0.60897
40.76038 0.60864
40.77095 0.60856
40.79066 0.60801
40.81039 0.60769
40.82095 0.60762
40.84069 0.60708
40.86046 0.60677
40.87101 0.60670
40.89078 0.60617
40.91057 0.60588
40.92111 0.60582
40.94091 0.60530
40.96073 0.60502
40.97126 0.60497
40.99108 0.60446
41.01094 0.60420
41.02144 0.60415
41.04130 0.60366
41.06118 0.60340
41.07168 0.60336
41.09156 0.60289
41.11147 0.60265
41.12196 0.60262
41.14186 0.60215
41.16179 0.60193
41.17226 0.60191
41.19219 0.60146
41.21214 0.60124
41.22261 0.60123
41.24256 0.60080
41.26253 0.60060
41.27297 0.60060
41.29295 0.60018
41.31295 0.60000
41.32337 0.60000
41.34336 0.59960
41.36338 0.59944
41.37379 0.59945
41.39380 0.59906
41.41383 0.59891
41.42422 0.59893
41.44426 0.59856
41.46430 0.59842
41.47468 0.59845
41.49473 0.59810
41.51479 0.59798
41.52515 0.59802
41.54521 0.59768
41.56529 0.59758
41.57563 0.59763
41.59571 0.59731
41.61580 0.59723
41.62610 0.59728
41.64619 0.59697
41.66630 0.59691
41.67658 0.59697
41.69668 0.59668
41.71680 0.59664
41.72706 0.59671
41.74717 0.59644
41.76729 0.59641
41.77754 0.59649
41.79766 0.59623
41.81779 0.59622
41.82801 0.59630
41.84813 0.59606
41.86826 0.59607
41.87845 0.59616
41.89858 0.59594
41.91872 0.59596
41.92889 0.59606
41.94902 0.59586
41.96916 0.59589
41.97931 0.59600
41.99945 0.59581
42.01959 0.59586
42.02970 0.59598
42.04983 0.59581
42.06997 0.59587
42.08007 0.59600
42.10020 0.59584
42.12034 0.59592
42.13040 0.59605
42.15053 0.59591
42.17067 0.59601
42.18070 0.59615
42.20083 0.59602
42.22096 0.59613
42.23097 0.59627
42.25109 0.59616
42.27122 0.59629
42.28119 0.59644
42.30131 0.59634
42.32143 0.59648
42.33138 0.59663
42.35149 0.59654
42.37160 0.59670
42.38151 0.59686
42.40162 0.59678
42.42172 0.59695
42.43160 0.59712
42.45170 0.59706
42.47179 0.59723
42.48164 0.59741
42.50173 0.59735
42.52181 0.59754
42.53163 0.59772
42.55170 0.59768
42.57177 0.59788
42.58156 0.59806
42.60162 0.59803
42.62168 0.59824
42.63143 0.59842
42.65149 0.59840
42.67153 0.59862
42.68125 0.59881
42.70129 0.59880
42.72132 0.59902
42.73101 0.59922
42.75104 0.59921
42.77106 0.59944
42.78070 0.59964
42.80071 0.59964
42.82071 0.59989
42.83033 0.60009
42.85033 0.60009
42.87032 0.60034
42.87989 0.60054
42.89988 0.60055
42.91985 0.60081
42.92940 0.60101
42.94936 0.60103
42.96932 0.60128
42.97884 0.60149
42.99879 0.60151
43.01873 0.60178
43.02820 0.60198
43.04814 0.60201
43.06806 0.60227
43.07750 0.60248
43.09742 0.60251
43.11733 0.60277
43.12673 0.60298
43.14663 0.60301
43.16653 0.60327
43.17590 0.60348
43.19578 0.60351
43.21566 0.60378
43.22500 0.60399
43.24487 0.60402
43.26473 0.60429
43.27403 0.60449
43.29388 0.60452
43.31372 0.60479
43.32300 0.60499
43.34283 0.60502
43.36266 0.60529
43.37189 0.60549
43.39170 0.60551
43.41151 0.60578
43.42072 0.60598
43.44052 0.60600
43.46031 0.60625
43.46948 0.60645
43.48927 0.60647
43.50905 0.60673
43.51818 0.60693
43.53795 0.60694
43.55772 0.60719
43.56682 0.60738
43.58658 0.60739
43.60633 0.60763
43.61540 0.60782
43.63514 0.60782
43.65487 0.60806
43.66391 0.60824
43.68364 0.60824
43.70336 0.60847
43.71237 0.60865
43.73208 0.60864
43.75179 0.60886
43.76076 0.60904
43.78046 0.60902
43.80016 0.60923
43.80910 0.60941
43.82880 0.60937
43.84848 0.60958
43.85740 0.60975
43.87708 0.60971
43.89675 0.60990
43.90563 0.61007
43.92530 0.61001
43.94496 0.61019
43.95381 0.61035
43.97348 0.61029
43.99313 0.61046
44.00195 0.61062
44.02160 0.61054
44.04125 0.61070
44.05004 0.61085
44.06969 0.61077
44.08933 0.61092
44.09809 0.61106
44.11773 0.61096
44.13736 0.61109
44.14610 0.61123
44.16573 0.61112
44.18536 0.61124
44.19407 0.61137
44.21370 0.61124
44.23333 0.61135
44.24201 0.61148
44.26163 0.61134
44.28126 0.61143
44.28991 0.61155
44.30953 0.61140
44.32915 0.61148
44.33777 0.61159
44.35740 0.61142
44.37702 0.61149
44.38561 0.61159
44.40523 0.61140
44.42486 0.61146
44.43343 0.61155
44.45305 0.61135
44.47268 0.61139
44.48123 0.61148
44.50085 0.61126
44.52049 0.61128
44.52900 0.61136
44.54863 0.61113
44.56827 0.61114
44.57677 0.61122
44.59640 0.61097
44.61604 0.61096
44.62451 0.61103
44.64415 0.61076
44.66380 0.61074
44.67224 0.61080
44.69189 0.61052
44.71155 0.61047
44.71997 0.61053
44.73963 0.61023
44.75929 0.61017
44.76770 0.61022
44.78736 0.60991
44.80704 0.60983
44.81541 0.60987
44.83509 0.60955
44.85478 0.60945
44.86314 0.60948
44.88283 0.60914
44.90253 0.60903
44.91087 0.60906
44.93057 0.60870
44.95028 0.60857
44.95861 0.60859
44.97832 0.60821
44.99806 0.60807
45.00635 0.60808
45.02608 0.60769
45.04583 0.60754
45.05411 0.60754
45.07386 0.60713
45.09362 0.60696
45.10189 0.60696
45.12165 0.60653
45.14144 0.60634
45.14969 0.60634
45.16947 0.60590
45.18928 0.60570
45.19750 0.60568
45.21731 0.60523
45.23714 0.60501
45.24535 0.60499
45.26517 0.60452
45.28503 0.60428
45.29322 0.60426
45.31307 0.60378
45.33295 0.60353
45.34112 0.60350
45.36099 0.60300
45.38089 0.60274
45.38905 0.60270
45.40896 0.60219
45.42888 0.60191
45.43703 0.60187
45.45696 0.60135
45.47692 0.60106
45.48505 0.60101
45.50500 0.60047
45.52498 0.60017
45.53310 0.60012
45.55308 0.59957
45.57309 0.59926
45.58119 0.59920
45.60121 0.59864
45.62125 0.59831
45.62934 0.59825
45.64938 0.59768
45.66946 0.59735
45.67754 0.59728
45.69761 0.59670
45.71772 0.59635
45.72578 0.59628
45.74589 0.59569
45.76603 0.59534
45.77408 0.59526
45.79422 0.59466
45.81440 0.59430
45.82243 0.59422
45.84261 0.59361
45.86282 0.59324
45.87084 0.59316
45.89105 0.59254
45.91130 0.59216
45.91931 0.59208
45.93956 0.59145
45.95985 0.59106
45.96784 0.59098
45.98813 0.59035
46.00845 0.58996
46.01643 0.58987
46.03676 0.58923
46.05712 0.58883
46.06509 0.58874
46.08546 0.58810
46.10586 0.58770
46.11381 0.58761
46.13422 0.58696
46.15466 0.58655
46.16260 0.58646
46.18305 0.58581
46.20353 0.58540
46.21146 0.58531
46.23194 0.58466
46.25246 0.58425
46.26039 0.58416
46.28091 0.58350
46.30147 0.58309
46.30938 0.58300
46.32994 0.58234
46.35054 0.58193
46.35844 0.58183
46.37905 0.58118
46.39969 0.58077
46.40758 0.58068
46.42822 0.58002
46.44891 0.57961
46.45678 0.57952
46.47747 0.57887
46.49819 0.57846
46.50606 0.57837
46.52679 0.57771
46.54756 0.57731
46.55540 0.57722
46.57617 0.57657
46.59698 0.57617
46.60482 0.57608
46.62563 0.57544
46.64648 0.57504
46.65431 0.57496
46.67516 0.57432
46.69605 0.57393
46.70386 0.57385
46.72476 0.57321
46.74569 0.57283
46.75349 0.57275
46.77442 0.57212
46.79539 0.57174
46.80318 0.57167
46.82416 0.57105
46.84517 0.57068
46.85294 0.57060
46.87396 0.56999
46.89501 0.56963
46.90276 0.56956
46.92382 0.56896
46.94491 0.56861
46.95265 0.56854
46.97374 0.56795
46.99487 0.56760
47.00260 0.56754
47.02373 0.56696
47.04489 0.56663
47.05261 0.56657
47.07378 0.56600
47.09498 0.56568
47.10267 0.56563
47.12388 0.56507
47.14511 0.56476
47.15279 0.56471
47.17403 0.56416
47.19530 0.56387
47.20296 0.56383
47.22424 0.56329
47.24554 0.56301
47.25320 0.56298
47.27450 0.56245
47.29584 0.56219
47.30347 0.56216
47.32481 0.56165
47.34617 0.56140
47.35378 0.56137
47.37515 0.56088
47.39654 0.56065
47.40415 0.56063
47.42554 0.56015
47.44697 0.55993
47.45455 0.55991
47.47597 0.55945
47.49742 0.55924
47.50498 0.55923
47.52643 0.55879
47.54791 0.55860
47.55544 0.55860
47.57692 0.55817
47.59842 0.55800
47.60593 0.55800
47.62743 0.55759
47.64896 0.55743
47.65645 0.55744
47.67798 0.55705
47.69952 0.55691
47.70700 0.55693
47.72854 0.55655
47.75010 0.55644
47.75755 0.55646
47.77912 0.55610
47.80070 0.55599
47.80813 0.55602
47.82971 0.55568
47.85130 0.55560
47.85870 0.55563
47.88030 0.55531
47.90191 0.55524
47.90929 0.55528
47.93090 0.55497
47.95252 0.55493
47.95988 0.55497
47.98150 0.55469
48.00314 0.55466
48.01046 0.55471
48.03209 0.55444
48.05374 0.55443
48.06104 0.55448
48.08268 0.55423
48.10433 0.55424
48.11161 0.55431
48.13326 0.55407
48.15492 0.55409
48.16216 0.55416
48.18382 0.55395
48.20548 0.55399
48.21270 0.55406
48.23436 0.55387
48.25603 0.55393
48.26322 0.55400
48.28489 0.55382
48.30655 0.55390
48.31371 0.55399
48.33537 0.55382
48.35704 0.55391
48.36417 0.55400
48.38583 0.55385
48.40750 0.55397
48.41460 0.55406
48.43626 0.55393
48.45792 0.55405
48.46499 0.55415
48.48665 0.55404
48.50831 0.55418
48.51534 0.55428
48.53700 0.55418
48.55865 0.55434
48.56566 0.55444
48.58730 0.55436
48.60895 0.55453
48.61593 0.55464
48.63756 0.55457
48.65920 0.55476
48.66614 0.55487
48.68776 0.55481
48.70939 0.55501
48.71630 0.55513
48.73792 0.55508
48.75953 0.55530
48.76641 0.55542
48.78802 0.55538
48.80962 0.55561
48.81647 0.55573
48.83806 0.55571
48.85965 0.55595
48.86646 0.55607
48.88804 0.55606
48.90962 0.55631
48.91639 0.55644
48.93796 0.55644
48.95951 0.55669
48.96626 0.55683
48.98782 0.55683
49.00936 0.55710
49.01608 0.55723
49.03761 0.55725
49.05913 0.55752
49.06581 0.55766
49.08733 0.55768
49.10884 0.55796
49.11548 0.55810
49.13698 0.55813
49.15847 0.55842
49.16509 0.55856
49.18657 0.55859
49.20804 0.55889
49.21461 0.55903
49.23608 0.55907
49.25753 0.55936
49.26407 0.55951
49.28552 0.55955
49.30695 0.55986
49.31346 0.56000
49.33489 0.56005
49.35631 0.56035
49.36278 0.56050
49.38419 0.56055
49.40558 0.56085
49.41201 0.56100
49.43340 0.56105
49.45478 0.56136
49.46119 0.56150
49.48256 0.56155
49.50391 0.56186
49.51029 0.56201
49.53164 0.56206
49.55297 0.56237
49.55931 0.56251
49.58064 0.56256
49.60196 0.56287
49.60826 0.56301
49.62957 0.56306
49.65087 0.56337
49.65714 0.56351
49.67843 0.56356
49.69972 0.56386
49.70594 0.56399
49.72722 0.56404
49.74848 0.56434
49.75469 0.56447
49.77595 0.56451
49.79719 0.56481
49.80335 0.56494
49.82460 0.56497
49.84582 0.56526
49.85196 0.56540
49.87319 0.56542
49.89440 0.56571
49.90050 0.56584
49.92171 0.56586
49.94290 0.56614
49.94897 0.56626
49.97016 0.56627
49.99135 0.56654
49.99737 0.56666
50.01855 0.56667
50.03972 0.56693
50.04572 0.56705
50.06688 0.56705
50.08803 0.56730
50.09401 0.56741
50.11516 0.56740
50.13630 0.56764
50.14223 0.56775
50.16337 0.56773
50.18450 0.56796
50.19040 0.56807
50.21153 0.56804
50.23264 0.56826
50.23852 0.56836
50.25963 0.56832
50.28074 0.56852
50.28659 0.56863
50.30769 0.56857
50.32879 0.56876
50.33460 0.56886
50.35570 0.56879
50.37679 0.56897
50.38257 0.56907
50.40366 0.56898
50.42475 0.56915
50.43050 0.56924
50.45159 0.56914
50.47267 0.56929
50.47839 0.56937
50.49947 0.56926
50.52055 0.56940
50.52624 0.56948
50.54731 0.56935
50.56839 0.56948
50.57406 0.56955
50.59513 0.56941
50.61620 0.56952
50.62184 0.56959
50.64291 0.56943
50.66398 0.56952
50.66958 0.56959
50.69065 0.56941
50.71172 0.56949
50.71730 0.56955
50.73838 0.56936
50.75945 0.56942
50.76500 0.56948
50.78608 0.56927
50.80716 0.56931
50.81269 0.56937
50.83377 0.56914
50.85485 0.56917
50.86035 0.56922
50.88143 0.56897
50.90253 0.56898
50.90800 0.56903
50.92909 0.56877
50.95019 0.56876
50.95563 0.56880
50.97672 0.56852
50.99783 0.56849
51.00326 0.56853
51.02437 0.56823
51.04549 0.56819
51.05088 0.56822
51.07200 0.56790
51.09313 0.56785
51.09850 0.56787
51.11963 0.56754
51.14077 0.56746
51.14613 0.56748
51.16727 0.56714
51.18843 0.56704
51.19375 0.56706
51.21491 0.56669
51.23609 0.56658
51.24139 0.56659
51.26256 0.56621
51.28376 0.56608
51.28903 0.56609
51.31022 0.56569
51.33144 0.56554
51.33669 0.56554
51.35791 0.56512
51.37914 0.56496
51.38437 0.56496
51.40561 0.56453
51.42687 0.56435
51.43207 0.56434
51.45332 0.56389
51.47461 0.56369
51.47979 0.56369
51.50108 0.56322
51.52238 0.56301
51.52755 0.56299
51.54885 0.56251
51.57019 0.56228
51.57532 0.56226
51.59665 0.56177
51.61802 0.56152
51.62314 0.56150
51.64450 0.56099
51.66589 0.56073
51.67098 0.56070
51.69237 0.56018
51.71379 0.55991
51.71888 0.55988
51.74030 0.55934
51.76175 0.55905
51.76680 0.55902
51.78826 0.55846
51.80974 0.55816
51.81478 0.55813
51.83626 0.55756
51.85779 0.55725
51.86279 0.55721
51.88431 0.55663
51.90587 0.55630
51.91087 0.55626
51.93243 0.55567
51.95402 0.55533
51.95899 0.55529
51.98058 0.55469
52.00221 0.55434
52.00717 0.55430
52.02881 0.55368
52.05048 0.55332
52.05541 0.55328
52.07708 0.55265
52.09879 0.55228
52.10370 0.55224
52.12541 0.55160
52.14716 0.55122
52.15205 0.55117
52.17381 0.55053
52.19560 0.55014
52.20047 0.55009
52.22227 0.54944
52.24411 0.54905
52.24896 0.54900
52.27079 0.54834
52.29268 0.54794
52.29750 0.54789
52.31938 0.54722
52.34131 0.54681
52.34613 0.54676
52.36806 0.54609
52.39003 0.54568
52.39482 0.54563
52.41679 0.54495
52.43880 0.54454
52.44358 0.54448
52.46559 0.54380
52.48766 0.54339
52.49241 0.54333
52.51448 0.54265
52.53659 0.54223
52.54132 0.54218
52.56343 0.54149
52.58559 0.54107
52.59030 0.54102
52.61246 0.54033
52.63467 0.53991
52.63936 0.53986
52.66157 0.53917
52.68382 0.53875
52.68850 0.53869
52.71075 0.53801
52.73305 0.53759
52.73770 0.53754
52.76000 0.53685
52.78235 0.53644
52.78699 0.53638
52.80934 0.53570
52.83174 0.53529
52.83635 0.53524
52.85875 0.53456
52.88119 0.53415
52.88579 0.53410
52.90824 0.53343
52.93073 0.53303
52.93530 0.53298
52.95780 0.53231
52.98034 0.53191
52.98489 0.53186
53.00743 0.53120
53.03002 0.53081
53.03456 0.53076
53.05715 0.53011
53.07978 0.52972
53.08429 0.52968
53.10693 0.52903
53.12961 0.52866
53.13410 0.52862
53.15679 0.52798
53.17951 0.52761
53.18398 0.52757
53.20671 0.52694
53.22948 0.52659
53.23392 0.52655
53.25669 0.52593
53.27951 0.52559
53.28393 0.52555
53.30675 0.52495
53.32961 0.52461
53.33401 0.52458
53.35688 0.52399
53.37978 0.52367
53.38416 0.52364
53.40706 0.52306
53.43000 0.52275
53.43436 0.52272
53.45731 0.52215
53.48029 0.52186
53.48461 0.52183
53.50760 0.52128
53.53062 0.52101
53.53494 0.52098
53.55796 0.52045
53.58102 0.52018
53.58530 0.52017
53.60836 0.51964
53.63145 0.51939
53.63572 0.51938
53.65881 0.51887
53.68194 0.51864
53.68618 0.51863
53.70931 0.51813
53.73247 0.51792
53.73667 0.51791
53.75984 0.51744
53.78303 0.51724
53.78722 0.51724
53.81041 0.51678
53.83363 0.51660
53.83780 0.51660
53.86102 0.51616
53.88427 0.51600
53.88840 0.51600
53.91165 0.51558
53.93493 0.51544
53.93903 0.51544
53.96231 0.51504
53.98561 0.51492
53.98969 0.51493
54.01300 0.51455
54.03632 0.51444
54.04038 0.51445
54.06370 0.51409
54.08704 0.51401
54.09107 0.51402
54.11441 0.51368
54.13777 0.51361
54.14177 0.51363
54.16513 0.51331
54.18851 0.51326
54.19247 0.51328
54.21585 0.51298
54.23925 0.51295
54.24319 0.51297
54.26658 0.51268
54.28999 0.51268
54.29389 0.51271
54.31730 0.51244
54.34072 0.51246
54.34460 0.51249
54.36801 0.51224
54.39144 0.51227
54.39528 0.51230
54.41871 0.51207
54.44214 0.51213
54.44596 0.51216
54.46939 0.51195
54.49283 0.51202
54.49662 0.51206
54.52005 0.51187
54.54349 0.51197
54.54725 0.51201
54.57069 0.51184
54.59413 0.51195
54.59786 0.51199
54.62130 0.51184
54.64474 0.51196
54.64843 0.51201
54.67187 0.51187
54.69531 0.51201
54.69897 0.51206
54.72241 0.51194
54.74584 0.51211
54.74947 0.51216
54.77290 0.51206
54.79633 0.51223
54.79993 0.51229
54.82335 0.51220
54.84678 0.51240
54.85034 0.51245
54.87376 0.51238
54.89717 0.51260
54.90070 0.51265
54.92411 0.51260
54.94751 0.51282
54.95101 0.51288
54.97441 0.51284
54.99780 0.51308
55.00126 0.51314
55.02465 0.51311
55.04802 0.51337
55.05146 0.51343
55.07483 0.51342
55.09819 0.51368
55.10159 0.51375
55.12494 0.51375
55.14829 0.51403
55.15165 0.51409
55.17500 0.51410
55.19832 0.51439
55.20166 0.51445
55.22498 0.51447
55.24829 0.51477
55.25158 0.51484
55.27489 0.51487
55.29818 0.51518
55.30145 0.51525
55.32474 0.51529
55.34801 0.51561
55.35124 0.51568
55.37451 0.51572
55.39776 0.51605
55.40095 0.51612
55.42420 0.51617
55.44743 0.51651
55.45060 0.51658
55.47383 0.51664
55.49704 0.51698
55.50015 0.51705
55.52336 0.51712
55.54655 0.51746
55.54965 0.51753
55.57284 0.51760
55.59600 0.51795
55.59906 0.51802
55.62222 0.51810
55.64537 0.51845
55.64838 0.51852
55.67152 0.51860
55.69465 0.51895
55.69764 0.51902
55.72076 0.51910
55.74386 0.51946
55.74682 0.51952
55.76992 0.51960
55.79299 0.51996
55.79591 0.52003
55.81898 0.52011
55.84204 0.52046
55.84492 0.52053
55.86798 0.52061
55.89101 0.52097
55.89386 0.52103
55.91689 0.52111
55.93990 0.52146
55.94272 0.52153
55.96573 0.52160
55.98872 0.52195
55.99151 0.52201
56.01449 0.52209
56.03746 0.52243
56.04021 0.52249
56.06318 0.52256
56.08613 0.52290
56.08885 0.52296
56.11180 0.52302
56.13473 0.52336
56.13742 0.52341
56.16034 0.52347
56.18325 0.52380
56.18590 0.52386
56.20880 0.52390
56.23169 0.52422
56.23433 0.52428
56.25721 0.52432
56.28009 0.52463
56.28268 0.52468
56.30555 0.52471
56.32840 0.52501
56.33096 0.52506
56.35381 0.52509
56.37665 0.52538
56.37917 0.52543
56.40201 0.52544
56.42484 0.52572
56.42734 0.52577
56.45016 0.52577
56.47297 0.52604
56.47543 0.52609
56.49824 0.52607
56.52104 0.52633
56.52347 0.52637
56.54627 0.52635
56.56906 0.52659
56.57146 0.52664
56.59424 0.52660
56.61702 0.52683
56.61939 0.52687
56.64217 0.52681
56.66494 0.52703
56.66727 0.52707
56.69004 0.52700
56.71280 0.52721
56.71510 0.52725
56.73787 0.52716
56.76062 0.52735
56.76289 0.52738
56.78565 0.52728
56.80840 0.52746
56.81064 0.52749
56.83340 0.52737
56.85614 0.52753
56.85836 0.52756
56.88111 0.52743
56.90386 0.52757
56.90603 0.52759
56.92878 0.52744
56.95152 0.52757
56.95368 0.52759
56.97643 0.52742
56.99918 0.52753
57.00129 0.52755
57.02404 0.52737
57.04679 0.52746
57.04888 0.52748
57.07163 0.52728
57.09439 0.52735
57.09645 0.52737
57.11921 0.52715
57.14197 0.52720
57.14400 0.52722
57.16676 0.52698
57.18953 0.52701
57.19153 0.52703
57.21430 0.52677
57.23708 0.52679
57.23905 0.52680
57.26183 0.52652
57.28462 0.52652
57.28656 0.52653
57.30935 0.52623
57.33215 0.52621
57.33407 0.52622
57.35687 0.52591
57.37969 0.52587
57.38157 0.52587
57.40439 0.52554
57.42722 0.52548
57.42908 0.52549
57.45191 0.52513
57.47476 0.52505
57.47658 0.52506
57.49944 0.52468
57.52231 0.52459
57.52411 0.52459
57.54698 0.52420
57.56987 0.52408
57.57163 0.52409
57.59453 0.52368
57.61744 0.52354
57.61918 0.52355
57.64210 0.52312
57.66504 0.52296
57.66675 0.52296
57.68969 0.52252
57.71265 0.52235
57.71433 0.52234
57.73730 0.52188
57.76029 0.52169
57.76194 0.52169
57.78493 0.52121
57.80796 0.52100
57.80959 0.52100
57.83261 0.52050
57.85567 0.52028
57.85725 0.52027
57.88031 0.51976
57.90340 0.51952
57.90497 0.51951
57.92806 0.51898
57.95118 0.51872
57.95272 0.51871
57.97584 0.51816
57.99900 0.51789
58.00050 0.51788
58.02366 0.51732
58.04686 0.51703
58.04834 0.51703
58.07153 0.51645
58.09477 0.51615
58.09621 0.51614
58.11945 0.51555
58.14272 0.51523
58.14414 0.51522
58.16742 0.51462
58.19074 0.51429
58.19213 0.51428
58.21545 0.51366
58.23881 0.51332
58.24016 0.51331
58.26352 0.51267
58.28693 0.51232
58.28827 0.51231
58.31167 0.51166
58.33513 0.51130
58.33643 0.51129
58.35988 0.51064
58.38338 0.51026
58.38466 0.51025
58.40815 0.50959
58.43170 0.50920
58.43295 0.50919
58.45649 0.50852
58.48009 0.50813
58.48130 0.50811
58.50489 0.50743
58.52854 0.50703
58.52973 0.50701
58.55337 0.50632
58.57707 0.50592
58.57824 0.50591
58.60193 0.50521
58.62568 0.50479
58.62681 0.50478
58.65055 0.50408
58.67436 0.50366
58.67545 0.50365
58.69926 0.50294
58.72311 0.50251
58.72419 0.50250
58.74804 0.50179
58.77195 0.50136
58.77299 0.50135
58.79690 0.50064
58.82087 0.50021
58.82188 0.50020
58.84585 0.49948
58.86987 0.49905
58.87085 0.49904
58.89487 0.49832
58.91895 0.49789
58.91989 0.49788
58.94397 0.49716
58.96810 0.49673
58.96903 0.49672
58.99316 0.49600
59.01735 0.49557
59.01824 0.49556
59.04243 0.49484
59.06668 0.49442
59.06754 0.49441
59.09179 0.49369
59.11609 0.49327
59.11692 0.49326
59.14122 0.49255
59.16558 0.49213
59.16638 0.49212
59.19074 0.49142
59.21516 0.49100
59.21592 0.49100
59.24034 0.49030
59.26481 0.48989
59.26555 0.48988
59.29002 0.48919
59.31455 0.48879
59.31526 0.48878
59.33979 0.48809
59.36437 0.48770
59.36504 0.48770
59.38963 0.48702
59.41426 0.48664
59.41490 0.48663
59.43954 0.48597
59.46423 0.48559
59.46485 0.48559
59.48954 0.48493
59.51428 0.48457
59.51486 0.48457
59.53961 0.48392
59.56440 0.48357
59.56495 0.48357
59.58975 0.48294
59.61460 0.48260
59.61512 0.48260
59.63997 0.48198
59.66487 0.48165
59.66534 0.48165
59.69024 0.48104
59.71519 0.48073
59.71564 0.48073
59.74058 0.48014
59.76558 0.47985
59.76599 0.47985
59.79099 0.47927
59.81603 0.47899
59.81642 0.47899
59.84146 0.47843
59.86655 0.47817
59.86690 0.47817
59.89198 0.47763
59.91711 0.47739
59.91742 0.47738
59.94255 0.47686
59.96772 0.47663
59.96801 0.47663
59.99317 0.47612
60.01838 0.47592
60.01862 0.47592
60.04383 0.47543
60.06907 0.47524
60.06929 0.47524
60.09453 0.47477
60.11981 0.47460
60.12000 0.47460
60.14528 0.47415
60.17059 0.47401
60.17074 0.47401
60.19606 0.47357
60.22140 0.47345
60.22152 0.47345
60.24686 0.47304
60.27223 0.47293
60.27231 0.47293
60.29768 0.47254
60.32307 0.47246
60.32313 0.47246
60.34852 0.47208
60.37395 0.47202
60.37396 0.47202
60.39938 0.47167
60.42481 0.47163
60.45025 0.47130
60.47566 0.47128
60.50112 0.47097
60.52651 0.47097
60.55200 0.47068
60.57737 0.47071
60.60286 0.47044
60.62821 0.47048
60.65372 0.47024
60.67905 0.47030
60.70457 0.47008
60.72986 0.47017
60.75539 0.46996
60.78067 0.47007
60.80620 0.46989
60.83143 0.47001
60.85696 0.46985
60.88218 0.46999
60.90771 0.46985
60.93288 0.47001
60.95841 0.46989
60.98355 0.47007
61.00909 0.46997
61.03418 0.47017
61.05971 0.47008
61.08476 0.47030
61.11028 0.47023
61.13528 0.47046
61.16079 0.47041
61.18576 0.47066
61.21126 0.47063
61.23617 0.47089
61.26165 0.47088
61.28653 0.47115
61.31200 0.47115
61.33682 0.47144
61.36227 0.47146
61.38705 0.47176
61.41248 0.47179
61.43720 0.47210
61.46262 0.47214
61.48727 0.47247
61.51267 0.47252
61.53728 0.47286
61.56265 0.47292
61.58721 0.47327
61.61257 0.47334
61.63706 0.47370
61.66239 0.47378
61.68683 0.47414
61.71214 0.47423
61.73652 0.47460
61.76180 0.47469
61.78613 0.47507
61.81138 0.47517
61.83564 0.47555
61.86087 0.47566
61.88508 0.47605
61.91028 0.47615
61.93443 0.47654
61.95960 0.47665
61.98369 0.47704
62.00884 0.47716
62.03287 0.47755
62.05800 0.47766
62.08196 0.47805
62.10706 0.47816
62.13097 0.47856
62.15605 0.47867
62.17989 0.47905
62.20494 0.47917
62.22873 0.47955
62.25375 0.47966
62.27748 0.48004
62.30248 0.48014
62.32616 0.48051
62.35113 0.48061
62.37475 0.48098
62.39970 0.48107
62.42327 0.48143
62.44819 0.48152
62.47170 0.48188
62.49660 0.48195
62.52006 0.48230
62.54494 0.48236
62.56834 0.48270
62.59320 0.48276
62.61655 0.48308
62.64139 0.48313
62.66469 0.48344
62.68952 0.48348
62.71277 0.48379
62.73758 0.48381
62.76078 0.48410
62.78556 0.48411
62.80872 0.48439
62.83350 0.48438
62.85662 0.48465
62.88138 0.48463
62.90444 0.48488
62.92919 0.48485
62.95222 0.48508
62.97696 0.48503
62.99995 0.48525
63.02468 0.48518
63.04763 0.48539
63.07236 0.48531
63.09526 0.48550
63.11998 0.48539
63.14286 0.48556
63.16757 0.48544
63.19041 0.48560
63.21512 0.48546
63.23793 0.48560
63.26264 0.48544
63.28542 0.48556
63.31014 0.48538
63.33288 0.48548
63.35760 0.48529
63.38031 0.48537
63.40503 0.48516
63.42773 0.48522
63.45246 0.48499
63.47512 0.48503
63.49986 0.48477
63.52251 0.48480
63.54726 0.48452
63.56988 0.48453
63.59465 0.48423
63.61725 0.48422
63.64203 0.48390
63.66462 0.48387
63.68942 0.48354
63.71199 0.48349
63.73681 0.48313
63.75936 0.48306
63.78420 0.48268
63.80674 0.48260
63.83160 0.48219
63.85414 0.48209
63.87902 0.48167
63.90155 0.48154
63.92646 0.48110
63.94898 0.48096
63.97392 0.48051
63.99643 0.48035
64.02141 0.47987
64.04392 0.47969
64.06892 0.47919
64.09142 0.47900
64.11647 0.47848
64.13897 0.47828
64.16405 0.47774
64.18655 0.47752
64.21167 0.47696
64.23418 0.47672
64.25934 0.47615
64.28185 0.47590
64.30705 0.47531
64.32957 0.47504
64.35481 0.47444
64.37734 0.47415
64.40263 0.47353
64.42517 0.47324
64.45051 0.47260
64.47305 0.47229
64.49844 0.47164
64.52099 0.47132
64.54643 0.47066
64.56899 0.47033
64.59448 0.46965
64.61707 0.46931
64.64261 0.46862
64.66521 0.46827
64.69081 0.46757
64.71343 0.46721
64.73909 0.46650
64.76170 0.46614
64.78742 0.46541
64.81007 0.46504
64.83585 0.46431
64.85851 0.46393
64.88435 0.46320
64.90704 0.46281
64.93294 0.46207
64.95563 0.46167
64.98159 0.46093
65.00432 0.46053
65.03035 0.45978
65.05310 0.45938
65.07920 0.45863
65.10196 0.45822
65.12812 0.45747
65.15091 0.45707
65.17713 0.45631
65.19994 0.45590
65.22623 0.45515
65.24907 0.45475
65.27543 0.45399
65.29829 0.45358
65.32471 0.45283
65.34760 0.45243
65.37410 0.45168
65.39700 0.45128
65.42357 0.45054
65.44649 0.45015
65.47312 0.44940
65.49607 0.44902
65.52276 0.44828
65.54574 0.44790
65.57250 0.44718
65.59549 0.44681
65.62232 0.44608
65.64534 0.44572
65.67224 0.44501
65.69526 0.44465
65.72223 0.44395
65.74529 0.44361
65.77231 0.44292
65.79537 0.44259
65.82247 0.44191
65.84555 0.44158
65.87271 0.44092
65.89582 0.44061
65.92303 0.43996
65.94615 0.43966
65.97342 0.43903
65.99656 0.43875
66.02389 0.43813
66.04703 0.43786
66.07442 0.43725
66.09757 0.43700
66.12501 0.43642
66.14818 0.43618
66.17568 0.43561
66.19884 0.43539
66.22639 0.43484
66.24957 0.43464
66.27717 0.43411
66.30033 0.43392
66.32798 0.43342
66.35116 0.43325
66.37885 0.43276
66.40202 0.43260
66.42975 0.43214
66.45292 0.43201
66.48069 0.43156
66.50385 0.43145
66.53166 0.43103
66.55481 0.43093
66.58266 0.43053
66.60580 0.43045
66.63368 0.43008
66.65680 0.43002
66.68470 0.42967
66.70782 0.42963
66.73575 0.42930
66.75884 0.42928
66.78680 0.42897
66.80988 0.42897
66.83786 0.42869
66.86089 0.42871
66.88889 0.42845
66.91192 0.42849
66.93993 0.42825
66.96293 0.42831
66.99095 0.42809
67.01391 0.42817
67.04194 0.42798
67.06489 0.42807
67.09292 0.42790
67.11581 0.42801
67.14385 0.42787
67.16671 0.42799
67.19475 0.42787
67.21759 0.42802
67.24563 0.42791
67.26841 0.42808
67.29644 0.42799
67.31919 0.42818
67.34722 0.42811
67.36990 0.42830
67.39792 0.42826
67.42057 0.42847
67.44858 0.42845
67.47118 0.42867
67.49918 0.42867
67.52173 0.42890
67.54971 0.42892
67.57221 0.42917
67.60017 0.42920
67.62262 0.42946
67.65056 0.42950
67.67295 0.42978
67.70087 0.42983
67.72321 0.43012
67.75110 0.43019
67.77337 0.43049
67.80124 0.43057
67.82347 0.43088
67.85132 0.43098
67.87348 0.43129
67.90130 0.43140
67.92339 0.43172
67.95118 0.43184
67.97323 0.43217
68.00099 0.43229
68.02297 0.43262
68.05071 0.43276
68.07262 0.43310
68.10032 0.43324
68.12218 0.43358
68.14985 0.43372
68.17165 0.43407
68.19929 0.43422
68.22101 0.43457
68.24862 0.43472
68.27030 0.43507
68.29787 0.43522
68.31948 0.43558
68.34702 0.43573
68.36857 0.43608
68.39608 0.43623
68.41756 0.43658
68.44504 0.43673
68.46647 0.43708
68.49392 0.43723
68.51527 0.43758
68.54269 0.43773
68.56399 0.43807
68.59138 0.43821
68.61263 0.43854
68.63998 0.43868
68.66116 0.43901
68.68849 0.43914
68.70961 0.43946
68.73691 0.43958
68.75799 0.43990
68.78527 0.44001
68.80627 0.44032
68.83352 0.44042
68.85448 0.44072
68.88171 0.44081
68.90261 0.44111
68.92981 0.44118
68.95066 0.44147
68.97784 0.44153
68.99863 0.44181
69.02579 0.44186
69.04655 0.44211
69.07369 0.44215
69.09438 0.44240
69.12151 0.44243
69.14215 0.44266
69.16926 0.44267
69.18986 0.44289
69.21696 0.44288
69.23751 0.44310
69.26460 0.44307
69.28511 0.44326
69.31219 0.44322
69.33265 0.44340
69.35972 0.44333
69.38015 0.44350
69.40721 0.44342
69.42760 0.44357
69.45466 0.44347
69.47501 0.44360
69.50207 0.44348
69.52238 0.44360
69.54943 0.44346
69.56972 0.44356
69.59678 0.44340
69.61702 0.44349
69.64408 0.44330
69.66430 0.44337
69.69137 0.44316
69.71156 0.44322
69.73864 0.44299
69.75880 0.44303
69.78589 0.44278
69.80602 0.44280
69.83312 0.44252
69.85323 0.44253
69.88035 0.44223
69.90044 0.44222
69.92757 0.44190
69.94764 0.44187
69.97479 0.44153
69.99485 0.44149
70.02203 0.44112
70.04206 0.44106
70.06927 0.44067
70.08927 0.44060
70.11650 0.44018
70.13651 0.44009
70.16377 0.43966
70.18375 0.43955
70.21105 0.43909
70.23103 0.43897
70.25836 0.43849
70.27832 0.43835
70.30569 0.43786
70.32565 0.43770
70.35306 0.43718
70.37301 0.43701
70.40046 0.43647
70.42040 0.43628
70.44789 0.43572
70.46784 0.43553
70.49538 0.43495
70.51532 0.43473
70.54291 0.43414
70.56284 0.43391
70.59048 0.43329
70.61043 0.43305
70.63813 0.43242
70.65806 0.43217
70.68581 0.43151
70.70576 0.43125
70.73356 0.43058
70.75351 0.43031
70.78138 0.42963
70.80134 0.42934
70.82927 0.42864
70.84924 0.42835
70.87723 0.42763
70.89720 0.42733
70.92525 0.42661
70.94525 0.42630
70.97337 0.42556
70.99336 0.42524
71.02155 0.42448
71.04156 0.42416
71.06982 0.42340
71.08984 0.42306
71.11817 0.42229
71.13821 0.42196
71.16662 0.42118
71.18667 0.42084
71.21515 0.42005
71.23521 0.41970
71.26377 0.41891
71.28385 0.41856
71.31249 0.41776
71.33259 0.41741
71.36130 0.41661
71.38141 0.41626
71.41020 0.41545
71.43034 0.41510
71.45921 0.41429
71.47936 0.41394
71.50831 0.41313
71.52848 0.41278
71.55752 0.41197
71.57770 0.41162
71.60682 0.41081
71.62702 0.41046
71.65622 0.40966
71.67644 0.40932
71.70572 0.40852
71.72595 0.40818
71.75532 0.40739
71.77558 0.40705
71.80503 0.40627
71.82529 0.40593
71.85482 0.40516
71.87511 0.40483
71.90472 0.40407
71.92503 0.40375
71.95472 0.40299
71.97504 0.40268
72.00481 0.40193
72.02513 0.40163
72.05499 0.40090
72.07534 0.40061
72.10527 0.39989
72.12563 0.39960
72.15563 0.39890
72.17599 0.39863
72.20607 0.39794
72.22645 0.39768
72.25661 0.39701
72.27699 0.39676
72.30721 0.39611
72.32761 0.39587
72.35790 0.39524
72.37829 0.39501
72.40866 0.39440
72.42906 0.39419
72.45949 0.39359
72.47989 0.39340
72.51038 0.39282
72.53079 0.39265
72.56134 0.39209
72.58173 0.39193
72.61234 0.39140
72.63273 0.39125
72.66340 0.39074
72.68378 0.39061
72.71450 0.39013
72.73487 0.39001
72.76564 0.38955
72.78600 0.38945
72.81681 0.38902
72.83717 0.38893
72.86802 0.38852
72.88836 0.38846
72.91925 0.38807
72.93957 0.38802
72.97050 0.38766
72.99079 0.38763
73.02175 0.38729
73.04203 0.38728
73.07302 0.38697
73.09326 0.38697
73.12428 0.38669
73.14450 0.38671
73.17554 0.38645
73.19573 0.38649
73.22678 0.38626
73.24695 0.38631
73.27801 0.38610
73.29815 0.38617
73.32923 0.38599
73.34931 0.38607
73.38040 0.38592
73.40045 0.38602
73.43154 0.38589
73.45155 0.38600
73.48264 0.38589
73.50261 0.38602
73.53370 0.38594
73.55363 0.38609
73.58471 0.38603
73.60458 0.38618
73.63565 0.38615
73.65549 0.38632
73.68655 0.38630
73.70632 0.38649
73.73737 0.38649
73.75710 0.38669
73.78813 0.38672
73.80779 0.38692
73.83881 0.38697
73.85843 0.38719
73.88942 0.38725
73.90897 0.38748
73.93993 0.38756
73.95943 0.38780
73.99037 0.38790
74.00982 0.38815
74.04073 0.38826
74.06011 0.38852
74.09099 0.38864
74.11030 0.38891
74.14115 0.38905
74.16041 0.38932
74.19122 0.38947
74.21041 0.38975
74.24119 0.38991
74.26032 0.39020
74.29106 0.39036
74.31013 0.39065
74.34084 0.39083
74.35984 0.39113
74.39051 0.39131
74.40944 0.39161
74.44007 0.39181
74.45894 0.39211
74.48953 0.39230
74.50833 0.39260
74.53889 0.39280
74.55763 0.39310
74.58814 0.39330
74.60682 0.39361
74.63730 0.39381
74.65590 0.39412
74.68634 0.39432
74.70488 0.39462
74.73528 0.39482
74.75375 0.39512
74.78411 0.39532
74.80254 0.39561
74.83286 0.39580
74.85120 0.39610
74.88149 0.39628
74.89979 0.39657
74.93004 0.39676
74.94826 0.39704
74.97848 0.39721
74.99664 0.39749
75.02682 0.39765
75.04494 0.39793
75.07509 0.39808
75.09313 0.39835
75.12324 0.39849
75.14125 0.39875
75.17133 0.39888
75.18927 0.39913
75.21933 0.39925
75.23720 0.39949
75.26723 0.39959
75.28506 0.39982
75.31507 0.39991
75.33284 0.40014
75.36283 0.40021
75.38054 0.40042
75.41051 0.40048
75.42818 0.40068
75.45813 0.40072
75.47574 0.40091
75.50567 0.40093
75.52324 0.40110
75.55316 0.40111
75.57069 0.40127
75.60059 0.40125
75.61806 0.40141
75.64796 0.40137
75.66540 0.40151
75.69529 0.40145
75.71267 0.40158
75.74256 0.40150
75.75991 0.40161
75.78979 0.40150
75.80709 0.40161
75.83697 0.40148
75.85425 0.40156
75.88414 0.40141
75.90137 0.40149
75.93126 0.40131
75.94846 0.40137
75.97836 0.40117
75.99553 0.40122
76.02544 0.40100
76.04257 0.40103
76.07249 0.40078
76.08959 0.40080
76.11953 0.40053
76.13662 0.40053
76.16658 0.40023
76.18362 0.40022
76.21361 0.39990
76.23063 0.39987
76.26064 0.39952
76.27763 0.39948
76.30767 0.39911
76.32464 0.39906
76.35471 0.39866
76.37166 0.39860
76.40176 0.39817
76.41870 0.39809
76.44884 0.39764
76.46575 0.39755
76.49593 0.39708
76.51283 0.39697
76.54306 0.39648
76.55994 0.39636
76.59021 0.39584
76.60707 0.39571
76.63739 0.39516
76.65424 0.39501
76.68461 0.39445
76.70146 0.39429
76.73188 0.39370
76.74872 0.39354
76.77919 0.39292
76.79602 0.39274
76.82655 0.39211
76.84337 0.39192
76.87397 0.39127
76.89079 0.39107
76.92145 0.39040
76.93826 0.39018
76.96899 0.38949
76.98581 0.38927
77.01661 0.38856
77.03340 0.38833
77.06428 0.38761
77.08109 0.38737
77.11204 0.38662
77.12884 0.38637
77.15987 0.38562
77.17667 0.38536
77.20778 0.38458
77.22460 0.38432
77.25579 0.38354
77.27259 0.38327
77.30387 0.38247
77.32069 0.38219
77.35205 0.38138
77.36888 0.38110
77.40033 0.38028
77.41714 0.37999
77.44868 0.37916
77.46551 0.37887
77.49715 0.37803
77.51399 0.37774
77.54571 0.37689
77.56257 0.37660
77.59439 0.37575
77.61124 0.37545
77.64316 0.37459
77.66003 0.37429
77.69204 0.37343
77.70892 0.37314
77.74104 0.37227
77.75792 0.37198
77.79014 0.37111
77.80704 0.37082
77.83935 0.36995
77.85625 0.36965
77.88867 0.36879
77.90559 0.36850
77.93811 0.36765
77.95503 0.36736
77.98765 0.36650
78.00458 0.36622
78.03731 0.36537
78.05425 0.36508
78.08708 0.36425
78.10402 0.36397
78.13695 0.36314
78.15392 0.36286
78.18695 0.36205
78.20392 0.36178
78.23705 0.36097
78.25402 0.36071
78.28725 0.35992
78.30422 0.35966
78.33756 0.35888
78.35454 0.35863
78.38797 0.35787
78.40496 0.35763
78.43848 0.35688
78.45547 0.35665
78.48909 0.35592
78.50607 0.35570
78.53979 0.35499
78.55678 0.35478
78.59058 0.35409
78.60757 0.35389
78.64146 0.35321
78.65844 0.35303
78.69241 0.35238
78.70940 0.35221
78.74345 0.35157
78.76042 0.35141
78.79456 0.35081
78.81153 0.35066
78.84574 0.35007
78.86270 0.34994
78.89698 0.34938
78.91392 0.34925
78.94828 0.34872
78.96520 0.34861
78.99962 0.34811
79.01653 0.34801
79.05101 0.34754
79.06792 0.34746
79.10245 0.34700
79.11932 0.34693
79.15391 0.34651
79.17077 0.34645
79.20541 0.34606
79.22223 0.34602
79.25692 0.34565
79.27372 0.34563
79.30845 0.34529
79.32521 0.34528
79.35997 0.34497
79.37671 0.34497
79.41150 0.34469
79.42822 0.34471
79.46304 0.34446
79.47970 0.34449
79.51454 0.34427
79.53118 0.34431
79.56604 0.34412
79.58264 0.34417
79.61751 0.34401
79.63406 0.34408
79.66894 0.34394
79.68544 0.34402
79.72033 0.34391
79.73679 0.34401
79.77168 0.34392
79.78809 0.34403
79.82297 0.34398
79.83934 0.34410
79.87422 0.34407
79.89052 0.34419
79.92539 0.34419
79.94164 0.34433
79.97649 0.34435
79.99269 0.34450
80.02752 0.34454
80.04367 0.34470
80.07848 0.34477
80.09457 0.34494
80.12936 0.34503
80.14538 0.34521
80.18014 0.34532
80.19610 0.34551
80.23083 0.34563
80.24672 0.34583
80.28142 0.34597
80.29725 0.34618
80.33191 0.34633
80.34769 0.34655
80.38230 0.34672
80.39802 0.34694
80.43259 0.34713
80.44824 0.34735
80.48278 0.34756
80.49835 0.34778
80.53284 0.34800
80.54834 0.34824
80.58279 0.34846
80.59824 0.34869
80.63264 0.34893
80.64801 0.34917
80.68236 0.34941
80.69767 0.34966
80.73197 0.34991
80.74721 0.35015
80.78147 0.35040
80.79664 0.35065
80.83085 0.35090
80.84596 0.35115
80.88011 0.35141
80.89514 0.35166
80.92925 0.35191
80.94422 0.35216
80.97828 0.35242
80.99319 0.35266
81.02720 0.35292
81.04202 0.35316
81.07598 0.35341
81.09076 0.35365
81.12467 0.35390
81.13937 0.35414
81.17324 0.35439
81.18788 0.35462
81.22171 0.35485
81.23628 0.35508
81.27006 0.35531
81.28457 0.35553
81.31831 0.35575
81.33277 0.35596
81.36647 0.35617
81.38087 0.35638
81.41452 0.35658
81.42885 0.35678
81.46247 0.35696
81.47673 0.35717
81.51032 0.35733
81.52454 0.35752
81.55810 0.35767
81.57224 0.35785
81.60577 0.35799
81.61987 0.35816
81.65337 0.35828
81.66741 0.35845
81.70089 0.35854
81.71487 0.35870
81.74832 0.35878
81.76225 0.35893
81.79569 0.35898
81.80957 0.35912
81.84299 0.35916
81.85682 0.35929
81.89022 0.35930
81.90400 0.35942
81.93739 0.35941
81.95112 0.35952
81.98450 0.35948
81.99819 0.35959
82.03156 0.35953
82.04519 0.35962
82.07856 0.35953
82.09217 0.35961
82.12555 0.35950
82.13910 0.35957
82.17248 0.35943
82.18598 0.35949
82.21936 0.35933
82.23284 0.35938
82.26624 0.35919
82.27968 0.35923
82.31309 0.35900
82.32648 0.35903
82.35991 0.35879
82.37327 0.35880
82.40672 0.35853
82.42005 0.35853
82.45352 0.35823
82.46681 0.35822
82.50031 0.35789
82.51357 0.35787
82.54710 0.35752
82.56032 0.35749
82.59389 0.35710
82.60709 0.35706
82.64070 0.35665
82.65387 0.35660
82.68752 0.35616
82.70067 0.35610
82.73436 0.35563
82.74748 0.35556
82.78122 0.35506
82.79430 0.35498
82.82810 0.35445
82.84117 0.35436
82.87503 0.35382
82.88808 0.35371
82.92199 0.35314
82.93502 0.35303
82.96900 0.35243
82.98201 0.35230
83.01605 0.35168
83.02903 0.35155
83.06315 0.35090
83.07612 0.35076
83.11031 0.35009
83.12325 0.34994
83.15752 0.34924
83.17047 0.34909
83.20482 0.34837
83.21774 0.34821
83.25217 0.34747
83.26508 0.34730
83.29960 0.34653
83.31249 0.34636
83.34711 0.34558
83.35999 0.34540
83.39470 0.34459
83.40757 0.34440
83.44237 0.34359
83.45523 0.34339
83.49014 0.34256
83.50300 0.34236
83.53801 0.34151
83.55086 0.34130
83.58597 0.34044
83.59881 0.34023
83.63403 0.33935
83.64687 0.33914
83.68220 0.33825
83.69501 0.33803
83.73046 0.33714
83.74328 0.33692
83.77884 0.33601
83.79166 0.33579
83.82734 0.33487
83.84016 0.33465
83.87596 0.33372
83.88876 0.33350
83.92468 0.33257
83.93749 0.33234
83.97354 0.33141
83.98634 0.33118
84.02252 0.33025
84.03530 0.33002
84.07161 0.32909
84.08440 0.32887
84.12083 0.32793
84.13362 0.32770
84.17018 0.32677
84.18297 0.32655
84.21966 0.32562
84.23244 0.32540
84.26926 0.32448
84.28203 0.32426
84.31898 0.32334
84.33175 0.32313
84.36883 0.32222
84.38160 0.32201
84.41881 0.32111
84.43157 0.32091
84.46891 0.32002
84.48167 0.31982
84.51914 0.31894
84.53188 0.31875
84.56949 0.31789
84.58223 0.31770
84.61996 0.31685
84.63268 0.31667
84.67054 0.31584
84.68326 0.31567
84.72124 0.31485
84.73394 0.31468
84.77204 0.31389
84.78474 0.31373
84.82296 0.31296
84.83564 0.31280
84.87398 0.31206
84.88666 0.31191
84.92511 0.31119
84.93776 0.31105
84.97631 0.31035
84.98895 0.31022
85.02762 0.30955
85.04023 0.30943
85.07900 0.30878
85.09161 0.30867
85.13048 0.30805
85.14305 0.30794
85.18201 0.30735
85.19456 0.30726
85.23361 0.30670
85.24614 0.30662
85.28527 0.30609
85.29777 0.30602
85.33698 0.30552
85.34946 0.30546
85.38875 0.30499
85.40119 0.30494
85.44054 0.30450
85.45296 0.30446
85.49238 0.30405
85.50475 0.30402
85.54423 0.30365
85.55656 0.30363
85.59610 0.30329
85.60840 0.30328
85.64798 0.30297
85.66024 0.30298
85.69985 0.30270
85.71208 0.30271
85.75173 0.30247
85.76388 0.30249
85.80357 0.30228
85.81570 0.30231
85.85541 0.30214
85.86748 0.30218
85.90720 0.30203
85.91923 0.30208
85.95897 0.30197
85.97094 0.30203
86.01068 0.30195
86.02261 0.30202
86.06235 0.30196
86.07420 0.30204
86.11394 0.30202
86.12576 0.30211
86.16548 0.30212
86.17723 0.30221
86.21694 0.30225
86.22864 0.30235
86.26832 0.30241
86.27997 0.30252
86.31963 0.30261
86.33119 0.30273
86.37082 0.30284
86.38233 0.30297
86.42193 0.30311
86.43338 0.30324
86.47294 0.30340
86.48432 0.30353
86.52384 0.30372
86.53516 0.30386
86.57463 0.30406
86.58588 0.30421
86.62531 0.30444
86.63650 0.30459
86.67587 0.30483
86.68698 0.30498
86.72631 0.30524
86.73736 0.30540
86.77662 0.30567
86.78759 0.30583
86.82681 0.30612
86.83771 0.30628
86.87686 0.30658
86.88769 0.30675
86.92678 0.30706
86.93756 0.30723
86.97659 0.30754
86.98728 0.30771
87.02624 0.30803
87.03687 0.30820
87.07578 0.30853
87.08635 0.30870
87.12519 0.30903
87.13567 0.30920
87.17445 0.30954
87.18487 0.30971
87.22358 0.31004
87.23393 0.31021
87.27258 0.31055
87.28285 0.31072
87.32144 0.31105
87.33167 0.31121
87.37019 0.31154
87.38034 0.31171
87.41881 0.31203
87.42888 0.31219
87.46729 0.31251
87.47731 0.31267
87.51566 0.31297
87.52561 0.31313
87.56391 0.31342
87.57378 0.31358
87.61202 0.31386
87.62184 0.31401
87.66003 0.31428
87.66980 0.31443
87.70794 0.31469
87.71763 0.31483
87.75573 0.31507
87.76535 0.31520
87.80340 0.31543
87.81297 0.31555
87.85098 0.31576
87.86049 0.31589
87.89846 0.31607
87.90792 0.31619
87.94586 0.31636
87.95525 0.31647
87.99316 0.31662
88.00249 0.31673
88.04037 0.31685
88.04966 0.31695
88.08751 0.31705
88.09673 0.31715
88.13456 0.31722
88.14371 0.31730
88.18153 0.31736
88.19065 0.31744
88.22845 0.31746
88.23751 0.31754
88.27531 0.31753
88.28431 0.31760
88.32210 0.31757
88.33105 0.31763
88.36883 0.31757
88.37774 0.31762
88.41553 0.31753
88.42438 0.31758
88.46217 0.31746
88.47099 0.31750
88.50880 0.31735
88.51754 0.31738
88.55536 0.31720
88.56409 0.31722
88.60193 0.31702
88.61058 0.31703
88.64844 0.31679
88.65708 0.31680
88.69497 0.31653
88.70355 0.31653
88.74147 0.31623
88.74999 0.31622
88.78795 0.31588
88.79644 0.31587
88.83444 0.31550
88.84289 0.31549
88.88093 0.31509
88.88935 0.31506
88.92744 0.31464
88.93581 0.31460
88.97396 0.31414
88.98231 0.31410
89.02051 0.31360
89.02881 0.31356
89.06707 0.31303
89.07533 0.31298
89.11366 0.31243
89.12190 0.31237
89.16030 0.31179
89.16849 0.31172
89.20698 0.31111
89.21515 0.31104
89.25371 0.31040
89.26184 0.31032
89.30050 0.30965
89.30858 0.30957
89.34733 0.30887
89.35538 0.30878
89.39422 0.30806
89.40224 0.30796
89.44118 0.30721
89.44919 0.30712
89.48823 0.30634
89.49620 0.30624
89.53535 0.30543
89.54329 0.30533
89.58256 0.30450
89.59045 0.30439
89.62983 0.30354
89.63772 0.30343
89.67722 0.30256
89.68507 0.30245
89.72470 0.30155
89.73253 0.30143
89.77229 0.30053
89.78008 0.30040
89.81997 0.29948
89.82774 0.29935
89.86777 0.29841
89.87550 0.29828
89.91567 0.29733
89.92339 0.29720
89.96370 0.29622
89.97139 0.29609
90.01186 0.29511
90.01952 0.29498
90.06013 0.29398
90.06776 0.29384
90.10853 0.29284
90.11615 0.29271
90.15707 0.29170
90.16466 0.29156
90.20574 0.29054
90.21331 0.29041
90.25455 0.28939
90.26208 0.28925
90.30349 0.28822
90.31101 0.28809
90.35259 0.28706
90.36007 0.28693
90.40182 0.28590
90.40928 0.28577
90.45120 0.28474
90.45863 0.28461
90.50072 0.28359
90.50812 0.28347
90.55038 0.28245
90.55776 0.28232
90.60020 0.28131
90.60755 0.28119
90.65016 0.28019
90.65749 0.28007
90.70026 0.27908
90.70755 0.27896
90.75050 0.27798
90.75778 0.27787
90.80090 0.27691
90.80814 0.27680
90.85144 0.27585
90.85864 0.27575
90.90210 0.27482
90.90929 0.27471
90.95292 0.27380
90.96006 0.27370
91.00386 0.27282
91.01098 0.27272
91.05494 0.27186
91.06202 0.27177
91.10614 0.27092
91.11319 0.27083
91.15746 0.27002
91.16448 0.26994
91.20890 0.26915
91.21587 0.26907
91.26045 0.26831
91.26737 0.26825
91.31209 0.26751
91.31899 0.26745
91.36384 0.26674
91.37072 0.26668
91.41571 0.26602
91.42251 0.26596
91.46762 0.26532
91.47440 0.26527
91.51963 0.26468
91.52637 0.26463
91.57172 0.26406
91.57841 0.26402
91.62387 0.26349
91.63049 0.26346
91.67605 0.26296
91.68265 0.26294
91.72829 0.26248
91.73482 0.26246
91.78056 0.26204
91.78705 0.26202
91.83287 0.26164
91.83931 0.26163
91.88519 0.26128
91.89159 0.26128
91.93753 0.26097
91.94386 0.26097
91.98986 0.26071
91.99614 0.26071
92.04218 0.26048
92.04840 0.26049
92.09449 0.26030
92.10066 0.26032
92.14677 0.26016
92.15287 0.26018
92.19901 0.26006
92.20506 0.26009
92.25121 0.26000
92.25718 0.26003
92.30334 0.26000
92.30925 0.26003
92.35541 0.26002
92.36129 0.26006
92.40743 0.26008
92.41322 0.26013
92.45935 0.26019
92.46508 0.26023
92.51119 0.26032
92.51686 0.26037
92.56294 0.26050
92.56854 0.26055
92.61458 0.26071
92.62010 0.26076
92.66610 0.26095
92.67158 0.26100
92.71754 0.26121
92.72293 0.26128
92.76883 0.26152
92.77416 0.26158
92.82001 0.26184
92.82527 0.26191
92.87105 0.26219
92.87624 0.26226
92.92196 0.26257
92.92709 0.26264
92.97274 0.26297
92.97778 0.26304
93.02336 0.26339
93.02835 0.26346
93.07385 0.26382
93.07877 0.26390
93.12419 0.26427
93.12904 0.26435
93.17438 0.26474
93.17913 0.26481
93.22439 0.26522
93.22912 0.26529
93.27429 0.26570
93.27891 0.26578
93.32400 0.26620
93.32859 0.26627
93.37359 0.26670
93.37809 0.26677
93.42301 0.26720
93.42744 0.26728
93.47227 0.26771
93.47664 0.26778
93.52139 0.26822
93.52568 0.26829
93.57034 0.26872
93.57456 0.26879
93.61914 0.26922
93.62332 0.26929
93.66782 0.26971
93.67191 0.26978
93.71633 0.27020
93.72035 0.27026
93.76469 0.27067
93.76867 0.27074
93.81294 0.27113
93.81683 0.27119
93.86103 0.27158
93.86485 0.27164
93.90897 0.27202
93.91274 0.27207
93.95680 0.27243
93.96050 0.27249
94.00449 0.27283
94.00813 0.27288
94.05207 0.27320
94.05563 0.27325
94.09951 0.27356
94.10302 0.27361
94.14685 0.27389
94.15029 0.27393
94.19407 0.27419
94.19746 0.27424
94.24119 0.27447
94.24452 0.27451
94.28822 0.27473
94.29147 0.27476
94.33512 0.27495
94.33832 0.27498
94.38195 0.27514
94.38510 0.27517
94.42870 0.27530
94.43176 0.27533
94.47534 0.27543
94.47837 0.27546
94.52193 0.27553
94.52488 0.27556
94.56843 0.27559
94.57134 0.27561
94.61488 0.27562
94.61772 0.27564
94.66126 0.27562
94.66404 0.27563
94.70758 0.27557
94.71031 0.27559
94.75386 0.27549
94.75654 0.27550
94.80010 0.27538
94.80272 0.27539
94.84630 0.27522
94.84887 0.27523
94.89248 0.27503
94.89497 0.27503
94.93861 0.27480
94.94106 0.27480
94.98474 0.27453
94.98712 0.27453
95.03085 0.27422
95.03318 0.27422
95.07695 0.27388
95.07923 0.27387
95.12306 0.27349
95.12527 0.27349
95.16916 0.27307
95.17132 0.27307
95.21528 0.27261
95.21737 0.27260
95.26140 0.27212
95.26346 0.27211
95.30756 0.27158
95.30957 0.27156
95.35376 0.27100
95.35568 0.27099
95.39996 0.27039
95.40186 0.27038
95.44623 0.26975
95.44807 0.26973
95.49254 0.26907
95.49431 0.26905
95.53890 0.26836
95.54061 0.26834
95.58531 0.26761
95.58700 0.26759
95.63182 0.26683
95.63341 0.26681
95.67836 0.26601
95.67993 0.26599
95.72501 0.26517
95.72648 0.26515
95.77170 0.26429
95.77315 0.26427
95.81852 0.26339
95.81990 0.26337
95.86541 0.26246
95.86674 0.26244
95.91241 0.26150
95.91369 0.26148
95.95953 0.26051
95.96073 0.26050
96.00673 0.25951
96.00790 0.25949
96.05407 0.25848
96.05517 0.25846
96.10152 0.25743
96.10255 0.25741
96.14909 0.25637
96.15007 0.25635
96.19679 0.25528
96.19772 0.25527
96.24464 0.25418
96.24552 0.25416
96.29264 0.25307
96.29343 0.25305
96.34076 0.25194
96.34150 0.25192
96.38904 0.25080
96.38972 0.25079
96.43747 0.24966
96.43809 0.24964
96.48606 0.24850
96.48663 0.24849
96.53482 0.24734
96.53531 0.24733
96.58372 0.24618
96.58415 0.24617
96.63279 0.24502
96.63317 0.24502
96.68204 0.24386
96.68235 0.24385
96.73145 0.24270
96.73169 0.24270
96.78103 0.24155
96.78121 0.24155
96.83079 0.24041
96.83089 0.24041
96.88070 0.23927
96.88075 0.23927
96.93080 0.23814
96.98099 0.23704
97.03138 0.23594
97.08193 0.23487
97.13264 0.23381
97.18352 0.23278
97.23456 0.23176
97.28576 0.23077
97.33713 0.22981
97.38864 0.22888
97.44029 0.22798
97.49211 0.22711
97.54405 0.22627
97.59611 0.22548
97.64829 0.22471
97.70058 0.22398
97.75299 0.22329
97.80548 0.22264
97.85806 0.22203
97.91070 0.22147
97.96343 0.22094
98.01621 0.22046
98.06904 0.22003
98.12189 0.21963
98.17477 0.21928
98.22765 0.21897
98.28055 0.21871
98.33344 0.21850
98.38628 0.21832
98.43912 0.21819
98.49187 0.21810
98.54462 0.21805
98.59726 0.21805
98.64984 0.21808
98.70233 0.21815
98.75472 0.21826
98.80699 0.21841
98.85918 0.21859
98.91123 0.21880
98.96313 0.21905
99.01491 0.21933
99.06653 0.21964
99.11802 0.21997
99.16934 0.22033
99.22048 0.22071
99.27148 0.22111
99.32231 0.22154
99.37294 0.22198
99.42342 0.22243
99.47369 0.22290
99.52380 0.22339
99.57373 0.22388
99.62347 0.22437
99.67303 0.22487
99.72239 0.22537
99.77158 0.22588
99.82060 0.22639
99.86943 0.22689
99.91808 0.22739
99.96657 0.22787
100.01486 0.22836
100.06300 0.22883
100.11097 0.22928
100.15880 0.22973
100.20644 0.23016
100.25393 0.23056
100.30130 0.23096
100.34849 0.23132
100.39557 0.23167
100.44250 0.23200
100.48929 0.23229
100.53597 0.23256
100.58253 0.23281
100.62899 0.23302
100.67531 0.23321
100.72155 0.23337
100.76771 0.23349
100.81376 0.23358
100.85974 0.23364
100.90564 0.23366
100.95146 0.23364
100.99722 0.23360
101.04294 0.23351
101.08859 0.23339
101.13422 0.23323
101.17978 0.23303
101.22533 0.23280
101.27086 0.23253
101.31636 0.23222
101.36187 0.23187
101.40736 0.23149
101.45284 0.23106
101.49834 0.23061
101.54387 0.23011
101.58943 0.22958
101.63501 0.22901
101.68063 0.22840
101.72628 0.22775
101.77201 0.22708
101.81776 0.22636
101.86361 0.22562
101.90951 0.22484
101.95552 0.22403
102.00159 0.22319
102.04776 0.22232
102.09404 0.22142
102.14041 0.22050
102.18688 0.21955
102.23349 0.21857
102.28025 0.21757
102.32712 0.21655
102.37412 0.21551
102.42126 0.21444
102.46859 0.21336
102.51605 0.21227
102.56367 0.21116
102.61147 0.21003
102.65946 0.20890
102.70759 0.20776
102.75596 0.20661
102.80446 0.20545
102.85318 0.20429
102.90209 0.20313
102.95121 0.20198
103.00054 0.20082
103.05005 0.19966
103.09978 0.19852
103.14973 0.19739
103.19987 0.19626
103.25024 0.19515
103.30083 0.19404
103.35160 0.19297
103.40263 0.19190
103.45381 0.19086
103.50522 0.18985
103.55684 0.18885
103.60864 0.18788
103.66065 0.18694
103.71282 0.18604
103.76520 0.18516
103.81773 0.18432
103.87045 0.18351
103.92330 0.18274
103.97630 0.18201
104.02943 0.18131
104.08270 0.18066
104.13606 0.18005
104.18956 0.17947
104.24310 0.17895
104.29672 0.17846
104.35044 0.17803
104.40417 0.17763
104.45796 0.17728
104.51175 0.17697
104.56555 0.17671
104.61933 0.17650
104.67309 0.17632
104.72678 0.17619
104.78045 0.17611
104.83406 0.17607
104.88754 0.17606
104.94095 0.17610
104.99426 0.17619
105.04743 0.17630
105.10046 0.17645
105.15336 0.17664
105.20610 0.17686
105.25867 0.17712
105.31105 0.17741
105.36326 0.17772
105.41528 0.17806
105.46709 0.17843
105.51871 0.17882
105.57008 0.17923
105.62129 0.17966
105.67225 0.18010
105.72299 0.18056
105.77353 0.18104
105.82381 0.18152
105.87389 0.18201
105.92372 0.18251
105.97334 0.18302
106.02274 0.18352
106.07190 0.18403
106.12085 0.18453
106.16957 0.18503
106.21808 0.18553
106.26636 0.18601
106.31447 0.18649
106.36234 0.18696
106.41003 0.18741
106.45754 0.18785
106.50484 0.18828
106.55195 0.18867
106.59888 0.18906
106.64564 0.18943
106.69221 0.18977
106.73867 0.19008
106.78493 0.19038
106.83108 0.19064
106.87706 0.19088
106.92291 0.19109
106.96863 0.19127
107.01424 0.19142
107.05974 0.19153
107.10513 0.19161
107.15043 0.19167
107.19563 0.19169
107.24073 0.19166
107.28577 0.19161
107.33074 0.19152
107.37566 0.19139
107.42051 0.19124
107.46534 0.19104
107.51008 0.19080
107.55484 0.19053
107.59955 0.19022
107.64423 0.18987
107.68894 0.18949
107.73365 0.18907
107.77834 0.18861
107.82306 0.18811
107.86780 0.18759
107.91259 0.18702
107.95739 0.18642
108.00227 0.18578
108.04719 0.18511
108.09217 0.18440
108.13725 0.18367
108.18237 0.18289
108.22762 0.18209
108.27293 0.18126
108.31838 0.18040
108.36392 0.17951
108.40961 0.17859
108.45539 0.17765
108.50135 0.17668
108.54743 0.17569
108.59369 0.17467
108.64009 0.17364
108.68669 0.17258
108.73343 0.17151
108.78038 0.17042
108.82755 0.16932
108.87487 0.16820
108.92243 0.16707
108.97021 0.16593
109.01822 0.16479
109.06644 0.16363
109.11493 0.16248
109.16361 0.16132
109.21258 0.16016
109.26184 0.15900
109.31131 0.15784
109.36105 0.15670
109.41106 0.15556
109.46134 0.15443
109.51191 0.15331
109.56274 0.15221
109.61383 0.15112
109.66521 0.15005
109.71686 0.14900
109.76878 0.14797
109.82098 0.14697
109.87345 0.14599
109.92616 0.14505
109.97914 0.14413
110.03239 0.14324
110.08581 0.14239
110.13952 0.14157
110.19342 0.14079
110.24751 0.14005
110.30181 0.13935
110.35629 0.13869
110.41092 0.13807
110.46572 0.13749
110.52062 0.13696
110.57565 0.13647
110.63072 0.13603
110.68593 0.13563
110.74114 0.13528
110.79640 0.13497
110.85169 0.13472
110.90693 0.13450
110.96215 0.13434
111.01729 0.13421
111.07239 0.13413
111.12739 0.13410
111.18229 0.13410
111.23703 0.13415
111.29165 0.13424
111.34610 0.13437
111.40035 0.13453
111.45438 0.13473
111.50822 0.13497
111.56182 0.13523
111.61520 0.13553
111.66829 0.13586
111.72119 0.13621
111.77377 0.13659
111.82607 0.13699
111.87812 0.13741
111.92986 0.13785
111.98132 0.13830
112.03245 0.13877
112.08333 0.13925
112.13387 0.13974
112.18416 0.14023
112.23414 0.14074
112.28379 0.14125
112.33319 0.14175
112.38229 0.14226
112.43109 0.14276
112.47960 0.14326
112.52788 0.14375
112.57584 0.14424
112.62356 0.14471
112.67102 0.14517
112.71822 0.14562
112.76519 0.14605
112.81191 0.14646
112.85839 0.14686
112.90465 0.14723
112.95070 0.14758
112.99652 0.14791
113.04217 0.14822
113.08760 0.14850
113.13288 0.14876
113.17797 0.14898
113.22291 0.14918
113.26765 0.14935
113.31228 0.14949
113.35677 0.14959
113.40108 0.14967
113.44534 0.14971
113.48941 0.14972
113.53345 0.14970
113.57732 0.14963
113.62115 0.14954
113.66492 0.14941
113.70859 0.14924
113.75219 0.14904
113.79575 0.14880
113.83925 0.14853
113.88273 0.14822
113.92618 0.14788
113.96963 0.14749
114.01306 0.14707
114.05650 0.14662
114.09996 0.14613
114.14343 0.14561
114.18693 0.14505
114.23046 0.14445
114.27404 0.14382
114.31771 0.14316
114.36142 0.14246
114.40520 0.14174
114.44912 0.14098
114.49309 0.14019
114.53718 0.13937
114.58139 0.13852
114.62575 0.13764
114.67024 0.13674
114.71485 0.13581
114.75965 0.13486
114.80462 0.13388
114.84979 0.13288
114.89514 0.13185
114.94069 0.13081
114.98645 0.12975
115.03248 0.12867
115.07871 0.12758
115.12518 0.12647
115.17195 0.12535
115.21901 0.12422
115.26630 0.12308
115.31391 0.12194
115.36183 0.12078
115.41004 0.11963
115.45862 0.11847
115.50752 0.11731
115.55675 0.11616
115.60637 0.11501
115.65635 0.11386
115.70670 0.11273
115.75742 0.11160
115.80853 0.11049
115.86001 0.10939
115.91194 0.10831
115.96420 0.10725
116.01689 0.10620
116.07002 0.10518
116.12350 0.10419
116.17739 0.10323
116.23165 0.10229
116.28629 0.10139
116.34135 0.10052
116.39673 0.09969
116.45248 0.09889
116.50853 0.09813
116.56491 0.09741
116.62158 0.09674
116.67853 0.09611
116.73570 0.09552
116.79311 0.09497
116.85071 0.09448
116.90843 0.09403
116.96638 0.09363
117.02433 0.09328
117.08236 0.09297
117.14044 0.09272
117.19852 0.09251
117.25652 0.09235
117.31448 0.09224
117.37234 0.09217
117.43000 0.09215
117.48756 0.09217
117.54482 0.09224
117.60194 0.09235
117.65873 0.09250
117.71526 0.09268
117.77148 0.09291
117.82737 0.09316
117.88292 0.09345
117.93805 0.09377
117.99282 0.09412
118.04720 0.09449
118.10116 0.09489
118.15465 0.09531
118.20780 0.09575
118.26049 0.09620
118.31271 0.09668
118.36453 0.09716
118.41589 0.09765
118.46686 0.09815
118.51737 0.09865
118.56744 0.09916
118.61709 0.09967
118.66633 0.10018
118.71517 0.10068
118.76364 0.10119
118.81170 0.10168
118.85940 0.10216
118.90668 0.10264
118.95360 0.10310
119.00023 0.10355
119.04649 0.10399
119.09242 0.10440
119.13797 0.10480
119.18329 0.10518
119.22831 0.10554
119.27303 0.10587
119.31747 0.10618
119.36164 0.10647
119.40560 0.10673
119.44929 0.10697
119.49272 0.10717
119.53597 0.10735
119.57901 0.10750
119.62186 0.10762
119.66451 0.10771
119.70697 0.10777
119.74934 0.10780
119.79149 0.10779
119.83353 0.10775
119.87545 0.10768
119.91722 0.10757
119.95889 0.10743
120.00046 0.10726
120.04195 0.10705
120.08332 0.10681
120.12465 0.10653
120.16592 0.10622
120.20712 0.10588
120.24834 0.10549
120.28950 0.10508
120.33059 0.10463
120.37173 0.10415
120.41290 0.10364
120.45406 0.10309
120.49523 0.10251
120.53646 0.10190
120.57771 0.10125
120.61904 0.10058
120.66042 0.09987
120.70192 0.09913
120.74347 0.09836
120.78514 0.09757
120.82696 0.09675
120.86889 0.09590
120.91102 0.09502
120.95323 0.09412
120.99569 0.09319
121.03827 0.09224
121.08113 0.09127
121.12413 0.09027
121.16743 0.08926
121.21096 0.08822
121.25481 0.08717
121.29890 0.08610
121.34329 0.08502
121.38804 0.08392
121.43318 0.08281
121.47860 0.08169
121.52447 0.08056
121.57071 0.07942
121.61740 0.07827
121.66453 0.07712
121.71220 0.07597
121.76031 0.07482
121.80900 0.07367
121.85817 0.07252
121.90797 0.07137
121.95828 0.07024
122.00933 0.06911
122.06091 0.06799
122.11317 0.06689
122.16616 0.06581
122.21991 0.06473
122.27426 0.06369
122.32941 0.06266
122.38527 0.06166
122.44194 0.06069
122.49931 0.05975
122.55751 0.05884
122.61645 0.05797
122.67616 0.05713
122.73658 0.05633
122.79765 0.05557
122.85950 0.05487
122.92201 0.05420
122.98501 0.05359
123.04866 0.05302
123.11284 0.05251
123.17737 0.05205
123.24231 0.05164
123.30751 0.05128
123.37297 0.05098
123.43843 0.05073
123.50412 0.05054
123.56960 0.05040
123.63502 0.05032
123.70019 0.05028
123.76501 0.05030
123.82947 0.05037
123.89358 0.05048
123.95706 0.05064
124.01991 0.05084
124.08222 0.05108
124.14375 0.05136
124.20462 0.05167
124.26470 0.05202
124.32400 0.05239
124.38253 0.05280
124.44008 0.05322
124.49702 0.05367
124.55299 0.05413
124.60817 0.05461
124.66252 0.05510
124.71599 0.05561
124.76877 0.05612
124.82074 0.05663
124.87192 0.05715
124.92239 0.05767
124.97207 0.05818
125.02104 0.05870
125.06938 0.05920
125.11708 0.05970
125.16412 0.06019
125.21054 0.06067
125.25635 0.06114
125.30162 0.06159
125.34633 0.06202
125.39050 0.06244
125.43417 0.06284
125.47738 0.06322
125.52015 0.06358
125.56244 0.06392
125.60436 0.06424
125.64576 0.06453
125.68686 0.06479
125.72759 0.06504
125.76798 0.06526
125.80796 0.06544
125.84765 0.06561
125.88706 0.06574
125.92612 0.06585
125.96494 0.06593
126.00343 0.06597
126.04175 0.06600
126.07980 0.06598
126.11759 0.06594
126.15514 0.06588
126.19255 0.06578
126.22968 0.06565
126.26668 0.06548
126.30349 0.06529
126.34013 0.06507
126.37658 0.06482
126.41287 0.06453
126.44910 0.06422
126.48511 0.06388
126.52112 0.06350
126.55690 0.06310
126.59257 0.06267
126.62820 0.06221
126.66370 0.06172
126.69919 0.06120
126.73452 0.06065
126.76983 0.06008
126.80510 0.05948
126.84027 0.05884
126.87544 0.05819
126.91057 0.05751
126.94563 0.05680
126.98075 0.05607
127.01583 0.05532

